#
# Results on Tue, 21 Jan 2025 20:34:53 GMT
# USER AGENT: Mozilla/5.0 (Windows NT 10.0; Win64; x64) AppleWebKit/537.36 (KHTML, like Gecko) Chrome/131.0.0.0 Safari/537.36
# Design number was non-random = 0
#
# Columns below this comment are as follows:
# 1. Results reception time.
# 2. MD5 hash of participant's IP address.
# 3. Controller name.
# 4. Order number of item.
# 5. Inner element number.
# 6. Label.
# 7. Latin Square Group.
# 8. PennElementType.
# 9. PennElementName.
# 10. Parameter.
# 11. Value.
# 12. EventTime.
# 13. Comments.
1737491693,c2a6e53f5f6a5ef01c86cf67ae5c669b,PennController,0,0,TCLE,NULL,PennController,0,_Trial_,Start,1737490926181,NULL
1737491693,c2a6e53f5f6a5ef01c86cf67ae5c669b,PennController,0,0,TCLE,NULL,PennController,0,_Trial_,End,1737490932174,NULL
1737491693,c2a6e53f5f6a5ef01c86cf67ae5c669b,PennController,3,0,instrucoes,NULL,PennController,3,_Trial_,Start,1737490932176,NULL
1737491693,c2a6e53f5f6a5ef01c86cf67ae5c669b,PennController,3,0,instrucoes,NULL,PennController,3,_Trial_,End,1737490933816,NULL
1737491693,c2a6e53f5f6a5ef01c86cf67ae5c669b,PennController,1,0,genero,NULL,PennController,1,_Trial_,Start,1737490933817,NULL
1737491693,c2a6e53f5f6a5ef01c86cf67ae5c669b,PennController,1,0,genero,NULL,DropDown,selecionaGenero,Selected,Feminino,1737490936522,1
1737491693,c2a6e53f5f6a5ef01c86cf67ae5c669b,PennController,1,0,genero,NULL,PennController,1,_Trial_,End,1737490937401,NULL
1737491693,c2a6e53f5f6a5ef01c86cf67ae5c669b,PennController,4,0,frases,NULL,PennController,5,_Trial_,Start,1737490937403,NULL
1737491693,c2a6e53f5f6a5ef01c86cf67ae5c669b,PennController,4,0,frases,NULL,Selector,classificacao,Selection,neutra,1737490942967,negativa;neutra;positiva
1737491693,c2a6e53f5f6a5ef01c86cf67ae5c669b,PennController,4,0,frases,NULL,PennController,5,_Trial_,End,1737490942969,NULL
1737491693,c2a6e53f5f6a5ef01c86cf67ae5c669b,PennController,5,0,frases,NULL,PennController,6,_Trial_,Start,1737490942970,NULL
1737491693,c2a6e53f5f6a5ef01c86cf67ae5c669b,PennController,5,0,frases,NULL,Selector,classificacao,Selection,neutra,1737490946286,negativa;neutra;positiva
1737491693,c2a6e53f5f6a5ef01c86cf67ae5c669b,PennController,5,0,frases,NULL,PennController,6,_Trial_,End,1737490946288,NULL
1737491693,c2a6e53f5f6a5ef01c86cf67ae5c669b,PennController,6,0,frases,NULL,PennController,7,_Trial_,Start,1737490946289,NULL
1737491693,c2a6e53f5f6a5ef01c86cf67ae5c669b,PennController,6,0,frases,NULL,Selector,classificacao,Selection,neutra,1737490949263,negativa;neutra;positiva
1737491693,c2a6e53f5f6a5ef01c86cf67ae5c669b,PennController,6,0,frases,NULL,PennController,7,_Trial_,End,1737490949264,NULL
1737491693,c2a6e53f5f6a5ef01c86cf67ae5c669b,PennController,7,0,frases,NULL,PennController,8,_Trial_,Start,1737490949265,NULL
1737491693,c2a6e53f5f6a5ef01c86cf67ae5c669b,PennController,7,0,frases,NULL,Selector,classificacao,Selection,neutra,1737490951747,negativa;neutra;positiva
1737491693,c2a6e53f5f6a5ef01c86cf67ae5c669b,PennController,7,0,frases,NULL,PennController,8,_Trial_,End,1737490951748,NULL
1737491693,c2a6e53f5f6a5ef01c86cf67ae5c669b,PennController,8,0,frases,NULL,PennController,9,_Trial_,Start,1737490951749,NULL
1737491693,c2a6e53f5f6a5ef01c86cf67ae5c669b,PennController,8,0,frases,NULL,Selector,classificacao,Selection,neutra,1737490956009,negativa;neutra;positiva
1737491693,c2a6e53f5f6a5ef01c86cf67ae5c669b,PennController,8,0,frases,NULL,PennController,9,_Trial_,End,1737490956010,NULL
1737491693,c2a6e53f5f6a5ef01c86cf67ae5c669b,PennController,9,0,frases,NULL,PennController,10,_Trial_,Start,1737490956012,NULL
1737491693,c2a6e53f5f6a5ef01c86cf67ae5c669b,PennController,9,0,frases,NULL,Selector,classificacao,Selection,neutra,1737490958903,negativa;neutra;positiva
1737491693,c2a6e53f5f6a5ef01c86cf67ae5c669b,PennController,9,0,frases,NULL,PennController,10,_Trial_,End,1737490958904,NULL
1737491693,c2a6e53f5f6a5ef01c86cf67ae5c669b,PennController,10,0,frases,NULL,PennController,11,_Trial_,Start,1737490958905,NULL
1737491693,c2a6e53f5f6a5ef01c86cf67ae5c669b,PennController,10,0,frases,NULL,Selector,classificacao,Selection,neutra,1737490967954,negativa;neutra;positiva
1737491693,c2a6e53f5f6a5ef01c86cf67ae5c669b,PennController,10,0,frases,NULL,PennController,11,_Trial_,End,1737490967955,NULL
1737491693,c2a6e53f5f6a5ef01c86cf67ae5c669b,PennController,11,0,frases,NULL,PennController,12,_Trial_,Start,1737490967956,NULL
1737491693,c2a6e53f5f6a5ef01c86cf67ae5c669b,PennController,11,0,frases,NULL,Selector,classificacao,Selection,neutra,1737490970944,negativa;neutra;positiva
1737491693,c2a6e53f5f6a5ef01c86cf67ae5c669b,PennController,11,0,frases,NULL,PennController,12,_Trial_,End,1737490970944,NULL
1737491693,c2a6e53f5f6a5ef01c86cf67ae5c669b,PennController,12,0,frases,NULL,PennController,13,_Trial_,Start,1737490970946,NULL
1737491693,c2a6e53f5f6a5ef01c86cf67ae5c669b,PennController,12,0,frases,NULL,Selector,classificacao,Selection,neutra,1737490976796,negativa;neutra;positiva
1737491693,c2a6e53f5f6a5ef01c86cf67ae5c669b,PennController,12,0,frases,NULL,PennController,13,_Trial_,End,1737490976796,NULL
1737491693,c2a6e53f5f6a5ef01c86cf67ae5c669b,PennController,13,0,frases,NULL,PennController,14,_Trial_,Start,1737490976797,NULL
1737491693,c2a6e53f5f6a5ef01c86cf67ae5c669b,PennController,13,0,frases,NULL,Selector,classificacao,Selection,negativa,1737490984557,negativa;neutra;positiva
1737491693,c2a6e53f5f6a5ef01c86cf67ae5c669b,PennController,13,0,frases,NULL,PennController,14,_Trial_,End,1737490984558,NULL
1737491693,c2a6e53f5f6a5ef01c86cf67ae5c669b,PennController,14,0,frases,NULL,PennController,15,_Trial_,Start,1737490984559,NULL
1737491693,c2a6e53f5f6a5ef01c86cf67ae5c669b,PennController,14,0,frases,NULL,Selector,classificacao,Selection,negativa,1737490991326,negativa;neutra;positiva
1737491693,c2a6e53f5f6a5ef01c86cf67ae5c669b,PennController,14,0,frases,NULL,PennController,15,_Trial_,End,1737490991327,NULL
1737491693,c2a6e53f5f6a5ef01c86cf67ae5c669b,PennController,15,0,frases,NULL,PennController,16,_Trial_,Start,1737490991328,NULL
1737491693,c2a6e53f5f6a5ef01c86cf67ae5c669b,PennController,15,0,frases,NULL,Selector,classificacao,Selection,neutra,1737490993284,negativa;neutra;positiva
1737491693,c2a6e53f5f6a5ef01c86cf67ae5c669b,PennController,15,0,frases,NULL,PennController,16,_Trial_,End,1737490993285,NULL
1737491693,c2a6e53f5f6a5ef01c86cf67ae5c669b,PennController,16,0,frases,NULL,PennController,17,_Trial_,Start,1737490993286,NULL
1737491693,c2a6e53f5f6a5ef01c86cf67ae5c669b,PennController,16,0,frases,NULL,Selector,classificacao,Selection,neutra,1737490995372,negativa;neutra;positiva
1737491693,c2a6e53f5f6a5ef01c86cf67ae5c669b,PennController,16,0,frases,NULL,PennController,17,_Trial_,End,1737490995372,NULL
1737491693,c2a6e53f5f6a5ef01c86cf67ae5c669b,PennController,17,0,frases,NULL,PennController,18,_Trial_,Start,1737490995373,NULL
1737491693,c2a6e53f5f6a5ef01c86cf67ae5c669b,PennController,17,0,frases,NULL,Selector,classificacao,Selection,neutra,1737490996774,negativa;neutra;positiva
1737491693,c2a6e53f5f6a5ef01c86cf67ae5c669b,PennController,17,0,frases,NULL,PennController,18,_Trial_,End,1737490996774,NULL
1737491693,c2a6e53f5f6a5ef01c86cf67ae5c669b,PennController,18,0,frases,NULL,PennController,19,_Trial_,Start,1737490996775,NULL
1737491693,c2a6e53f5f6a5ef01c86cf67ae5c669b,PennController,18,0,frases,NULL,Selector,classificacao,Selection,negativa,1737491006360,negativa;neutra;positiva
1737491693,c2a6e53f5f6a5ef01c86cf67ae5c669b,PennController,18,0,frases,NULL,PennController,19,_Trial_,End,1737491006361,NULL
1737491693,c2a6e53f5f6a5ef01c86cf67ae5c669b,PennController,19,0,frases,NULL,PennController,20,_Trial_,Start,1737491006362,NULL
1737491693,c2a6e53f5f6a5ef01c86cf67ae5c669b,PennController,19,0,frases,NULL,Selector,classificacao,Selection,neutra,1737491009440,negativa;neutra;positiva
1737491693,c2a6e53f5f6a5ef01c86cf67ae5c669b,PennController,19,0,frases,NULL,PennController,20,_Trial_,End,1737491009441,NULL
1737491693,c2a6e53f5f6a5ef01c86cf67ae5c669b,PennController,20,0,frases,NULL,PennController,21,_Trial_,Start,1737491009442,NULL
1737491693,c2a6e53f5f6a5ef01c86cf67ae5c669b,PennController,20,0,frases,NULL,Selector,classificacao,Selection,positiva,1737491017468,negativa;neutra;positiva
1737491693,c2a6e53f5f6a5ef01c86cf67ae5c669b,PennController,20,0,frases,NULL,PennController,21,_Trial_,End,1737491017469,NULL
1737491693,c2a6e53f5f6a5ef01c86cf67ae5c669b,PennController,21,0,frases,NULL,PennController,22,_Trial_,Start,1737491017470,NULL
1737491693,c2a6e53f5f6a5ef01c86cf67ae5c669b,PennController,21,0,frases,NULL,Selector,classificacao,Selection,negativa,1737491026124,negativa;neutra;positiva
1737491693,c2a6e53f5f6a5ef01c86cf67ae5c669b,PennController,21,0,frases,NULL,PennController,22,_Trial_,End,1737491026126,NULL
1737491693,c2a6e53f5f6a5ef01c86cf67ae5c669b,PennController,22,0,frases,NULL,PennController,23,_Trial_,Start,1737491026127,NULL
1737491693,c2a6e53f5f6a5ef01c86cf67ae5c669b,PennController,22,0,frases,NULL,Selector,classificacao,Selection,negativa,1737491033698,negativa;neutra;positiva
1737491693,c2a6e53f5f6a5ef01c86cf67ae5c669b,PennController,22,0,frases,NULL,PennController,23,_Trial_,End,1737491033699,NULL
1737491693,c2a6e53f5f6a5ef01c86cf67ae5c669b,PennController,23,0,frases,NULL,PennController,24,_Trial_,Start,1737491033700,NULL
1737491693,c2a6e53f5f6a5ef01c86cf67ae5c669b,PennController,23,0,frases,NULL,Selector,classificacao,Selection,neutra,1737491037106,negativa;neutra;positiva
1737491693,c2a6e53f5f6a5ef01c86cf67ae5c669b,PennController,23,0,frases,NULL,PennController,24,_Trial_,End,1737491037107,NULL
1737491693,c2a6e53f5f6a5ef01c86cf67ae5c669b,PennController,24,0,frases,NULL,PennController,25,_Trial_,Start,1737491037108,NULL
1737491693,c2a6e53f5f6a5ef01c86cf67ae5c669b,PennController,24,0,frases,NULL,Selector,classificacao,Selection,negativa,1737491042752,negativa;neutra;positiva
1737491693,c2a6e53f5f6a5ef01c86cf67ae5c669b,PennController,24,0,frases,NULL,PennController,25,_Trial_,End,1737491042753,NULL
1737491693,c2a6e53f5f6a5ef01c86cf67ae5c669b,PennController,25,0,frases,NULL,PennController,26,_Trial_,Start,1737491042754,NULL
1737491693,c2a6e53f5f6a5ef01c86cf67ae5c669b,PennController,25,0,frases,NULL,Selector,classificacao,Selection,neutra,1737491047156,negativa;neutra;positiva
1737491693,c2a6e53f5f6a5ef01c86cf67ae5c669b,PennController,25,0,frases,NULL,PennController,26,_Trial_,End,1737491047157,NULL
1737491693,c2a6e53f5f6a5ef01c86cf67ae5c669b,PennController,26,0,frases,NULL,PennController,27,_Trial_,Start,1737491047158,NULL
1737491693,c2a6e53f5f6a5ef01c86cf67ae5c669b,PennController,26,0,frases,NULL,Selector,classificacao,Selection,positiva,1737491053602,negativa;neutra;positiva
1737491693,c2a6e53f5f6a5ef01c86cf67ae5c669b,PennController,26,0,frases,NULL,PennController,27,_Trial_,End,1737491053603,NULL
1737491693,c2a6e53f5f6a5ef01c86cf67ae5c669b,PennController,27,0,frases,NULL,PennController,28,_Trial_,Start,1737491053604,NULL
1737491693,c2a6e53f5f6a5ef01c86cf67ae5c669b,PennController,27,0,frases,NULL,Selector,classificacao,Selection,positiva,1737491060912,negativa;neutra;positiva
1737491693,c2a6e53f5f6a5ef01c86cf67ae5c669b,PennController,27,0,frases,NULL,PennController,28,_Trial_,End,1737491060913,NULL
1737491693,c2a6e53f5f6a5ef01c86cf67ae5c669b,PennController,28,0,frases,NULL,PennController,29,_Trial_,Start,1737491060914,NULL
1737491693,c2a6e53f5f6a5ef01c86cf67ae5c669b,PennController,28,0,frases,NULL,Selector,classificacao,Selection,positiva,1737491066398,negativa;neutra;positiva
1737491693,c2a6e53f5f6a5ef01c86cf67ae5c669b,PennController,28,0,frases,NULL,PennController,29,_Trial_,End,1737491066399,NULL
1737491693,c2a6e53f5f6a5ef01c86cf67ae5c669b,PennController,29,0,frases,NULL,PennController,30,_Trial_,Start,1737491066400,NULL
1737491693,c2a6e53f5f6a5ef01c86cf67ae5c669b,PennController,29,0,frases,NULL,Selector,classificacao,Selection,negativa,1737491070848,negativa;neutra;positiva
1737491693,c2a6e53f5f6a5ef01c86cf67ae5c669b,PennController,29,0,frases,NULL,PennController,30,_Trial_,End,1737491070849,NULL
1737491693,c2a6e53f5f6a5ef01c86cf67ae5c669b,PennController,30,0,frases,NULL,PennController,31,_Trial_,Start,1737491070850,NULL
1737491693,c2a6e53f5f6a5ef01c86cf67ae5c669b,PennController,30,0,frases,NULL,Selector,classificacao,Selection,negativa,1737491074416,negativa;neutra;positiva
1737491693,c2a6e53f5f6a5ef01c86cf67ae5c669b,PennController,30,0,frases,NULL,PennController,31,_Trial_,End,1737491074417,NULL
1737491693,c2a6e53f5f6a5ef01c86cf67ae5c669b,PennController,31,0,frases,NULL,PennController,32,_Trial_,Start,1737491074418,NULL
1737491693,c2a6e53f5f6a5ef01c86cf67ae5c669b,PennController,31,0,frases,NULL,Selector,classificacao,Selection,negativa,1737491080111,negativa;neutra;positiva
1737491693,c2a6e53f5f6a5ef01c86cf67ae5c669b,PennController,31,0,frases,NULL,PennController,32,_Trial_,End,1737491080111,NULL
1737491693,c2a6e53f5f6a5ef01c86cf67ae5c669b,PennController,32,0,frases,NULL,PennController,33,_Trial_,Start,1737491080112,NULL
1737491693,c2a6e53f5f6a5ef01c86cf67ae5c669b,PennController,32,0,frases,NULL,Selector,classificacao,Selection,neutra,1737491088538,negativa;neutra;positiva
1737491693,c2a6e53f5f6a5ef01c86cf67ae5c669b,PennController,32,0,frases,NULL,PennController,33,_Trial_,End,1737491088539,NULL
1737491693,c2a6e53f5f6a5ef01c86cf67ae5c669b,PennController,33,0,frases,NULL,PennController,34,_Trial_,Start,1737491088540,NULL
1737491693,c2a6e53f5f6a5ef01c86cf67ae5c669b,PennController,33,0,frases,NULL,Selector,classificacao,Selection,neutra,1737491091738,negativa;neutra;positiva
1737491693,c2a6e53f5f6a5ef01c86cf67ae5c669b,PennController,33,0,frases,NULL,PennController,34,_Trial_,End,1737491091739,NULL
1737491693,c2a6e53f5f6a5ef01c86cf67ae5c669b,PennController,34,0,frases,NULL,PennController,35,_Trial_,Start,1737491091740,NULL
1737491693,c2a6e53f5f6a5ef01c86cf67ae5c669b,PennController,34,0,frases,NULL,Selector,classificacao,Selection,neutra,1737491099870,negativa;neutra;positiva
1737491693,c2a6e53f5f6a5ef01c86cf67ae5c669b,PennController,34,0,frases,NULL,PennController,35,_Trial_,End,1737491099871,NULL
1737491693,c2a6e53f5f6a5ef01c86cf67ae5c669b,PennController,35,0,frases,NULL,PennController,36,_Trial_,Start,1737491099872,NULL
1737491693,c2a6e53f5f6a5ef01c86cf67ae5c669b,PennController,35,0,frases,NULL,Selector,classificacao,Selection,negativa,1737491104667,negativa;neutra;positiva
1737491693,c2a6e53f5f6a5ef01c86cf67ae5c669b,PennController,35,0,frases,NULL,PennController,36,_Trial_,End,1737491104668,NULL
1737491693,c2a6e53f5f6a5ef01c86cf67ae5c669b,PennController,36,0,frases,NULL,PennController,37,_Trial_,Start,1737491104669,NULL
1737491693,c2a6e53f5f6a5ef01c86cf67ae5c669b,PennController,36,0,frases,NULL,Selector,classificacao,Selection,positiva,1737491107929,negativa;neutra;positiva
1737491693,c2a6e53f5f6a5ef01c86cf67ae5c669b,PennController,36,0,frases,NULL,PennController,37,_Trial_,End,1737491107930,NULL
1737491693,c2a6e53f5f6a5ef01c86cf67ae5c669b,PennController,37,0,frases,NULL,PennController,38,_Trial_,Start,1737491107931,NULL
1737491693,c2a6e53f5f6a5ef01c86cf67ae5c669b,PennController,37,0,frases,NULL,Selector,classificacao,Selection,neutra,1737491109507,negativa;neutra;positiva
1737491693,c2a6e53f5f6a5ef01c86cf67ae5c669b,PennController,37,0,frases,NULL,PennController,38,_Trial_,End,1737491109507,NULL
1737491693,c2a6e53f5f6a5ef01c86cf67ae5c669b,PennController,38,0,frases,NULL,PennController,39,_Trial_,Start,1737491109508,NULL
1737491693,c2a6e53f5f6a5ef01c86cf67ae5c669b,PennController,38,0,frases,NULL,Selector,classificacao,Selection,negativa,1737491116017,negativa;neutra;positiva
1737491693,c2a6e53f5f6a5ef01c86cf67ae5c669b,PennController,38,0,frases,NULL,PennController,39,_Trial_,End,1737491116018,NULL
1737491693,c2a6e53f5f6a5ef01c86cf67ae5c669b,PennController,39,0,frases,NULL,PennController,40,_Trial_,Start,1737491116019,NULL
1737491693,c2a6e53f5f6a5ef01c86cf67ae5c669b,PennController,39,0,frases,NULL,Selector,classificacao,Selection,neutra,1737491119569,negativa;neutra;positiva
1737491693,c2a6e53f5f6a5ef01c86cf67ae5c669b,PennController,39,0,frases,NULL,PennController,40,_Trial_,End,1737491119570,NULL
1737491693,c2a6e53f5f6a5ef01c86cf67ae5c669b,PennController,40,0,frases,NULL,PennController,41,_Trial_,Start,1737491119571,NULL
1737491693,c2a6e53f5f6a5ef01c86cf67ae5c669b,PennController,40,0,frases,NULL,Selector,classificacao,Selection,neutra,1737491122097,negativa;neutra;positiva
1737491693,c2a6e53f5f6a5ef01c86cf67ae5c669b,PennController,40,0,frases,NULL,PennController,41,_Trial_,End,1737491122098,NULL
1737491693,c2a6e53f5f6a5ef01c86cf67ae5c669b,PennController,41,0,frases,NULL,PennController,42,_Trial_,Start,1737491122098,NULL
1737491693,c2a6e53f5f6a5ef01c86cf67ae5c669b,PennController,41,0,frases,NULL,Selector,classificacao,Selection,neutra,1737491130135,negativa;neutra;positiva
1737491693,c2a6e53f5f6a5ef01c86cf67ae5c669b,PennController,41,0,frases,NULL,PennController,42,_Trial_,End,1737491130136,NULL
1737491693,c2a6e53f5f6a5ef01c86cf67ae5c669b,PennController,42,0,frases,NULL,PennController,43,_Trial_,Start,1737491130137,NULL
1737491693,c2a6e53f5f6a5ef01c86cf67ae5c669b,PennController,42,0,frases,NULL,Selector,classificacao,Selection,neutra,1737491136307,negativa;neutra;positiva
1737491693,c2a6e53f5f6a5ef01c86cf67ae5c669b,PennController,42,0,frases,NULL,PennController,43,_Trial_,End,1737491136308,NULL
1737491693,c2a6e53f5f6a5ef01c86cf67ae5c669b,PennController,43,0,frases,NULL,PennController,44,_Trial_,Start,1737491136309,NULL
1737491693,c2a6e53f5f6a5ef01c86cf67ae5c669b,PennController,43,0,frases,NULL,Selector,classificacao,Selection,neutra,1737491139199,negativa;neutra;positiva
1737491693,c2a6e53f5f6a5ef01c86cf67ae5c669b,PennController,43,0,frases,NULL,PennController,44,_Trial_,End,1737491139200,NULL
1737491693,c2a6e53f5f6a5ef01c86cf67ae5c669b,PennController,44,0,frases,NULL,PennController,45,_Trial_,Start,1737491139200,NULL
1737491693,c2a6e53f5f6a5ef01c86cf67ae5c669b,PennController,44,0,frases,NULL,Selector,classificacao,Selection,negativa,1737491141439,negativa;neutra;positiva
1737491693,c2a6e53f5f6a5ef01c86cf67ae5c669b,PennController,44,0,frases,NULL,PennController,45,_Trial_,End,1737491141439,NULL
1737491693,c2a6e53f5f6a5ef01c86cf67ae5c669b,PennController,45,0,frases,NULL,PennController,46,_Trial_,Start,1737491141440,NULL
1737491693,c2a6e53f5f6a5ef01c86cf67ae5c669b,PennController,45,0,frases,NULL,Selector,classificacao,Selection,negativa,1737491150767,negativa;neutra;positiva
1737491693,c2a6e53f5f6a5ef01c86cf67ae5c669b,PennController,45,0,frases,NULL,PennController,46,_Trial_,End,1737491150768,NULL
1737491693,c2a6e53f5f6a5ef01c86cf67ae5c669b,PennController,46,0,frases,NULL,PennController,47,_Trial_,Start,1737491150769,NULL
1737491693,c2a6e53f5f6a5ef01c86cf67ae5c669b,PennController,46,0,frases,NULL,Selector,classificacao,Selection,neutra,1737491157601,negativa;neutra;positiva
1737491693,c2a6e53f5f6a5ef01c86cf67ae5c669b,PennController,46,0,frases,NULL,PennController,47,_Trial_,End,1737491157602,NULL
1737491693,c2a6e53f5f6a5ef01c86cf67ae5c669b,PennController,47,0,frases,NULL,PennController,48,_Trial_,Start,1737491157603,NULL
1737491693,c2a6e53f5f6a5ef01c86cf67ae5c669b,PennController,47,0,frases,NULL,Selector,classificacao,Selection,positiva,1737491164601,negativa;neutra;positiva
1737491693,c2a6e53f5f6a5ef01c86cf67ae5c669b,PennController,47,0,frases,NULL,PennController,48,_Trial_,End,1737491164602,NULL
1737491693,c2a6e53f5f6a5ef01c86cf67ae5c669b,PennController,48,0,frases,NULL,PennController,49,_Trial_,Start,1737491164603,NULL
1737491693,c2a6e53f5f6a5ef01c86cf67ae5c669b,PennController,48,0,frases,NULL,Selector,classificacao,Selection,neutra,1737491168889,negativa;neutra;positiva
1737491693,c2a6e53f5f6a5ef01c86cf67ae5c669b,PennController,48,0,frases,NULL,PennController,49,_Trial_,End,1737491168891,NULL
1737491693,c2a6e53f5f6a5ef01c86cf67ae5c669b,PennController,49,0,frases,NULL,PennController,50,_Trial_,Start,1737491168892,NULL
1737491693,c2a6e53f5f6a5ef01c86cf67ae5c669b,PennController,49,0,frases,NULL,Selector,classificacao,Selection,negativa,1737491173411,negativa;neutra;positiva
1737491693,c2a6e53f5f6a5ef01c86cf67ae5c669b,PennController,49,0,frases,NULL,PennController,50,_Trial_,End,1737491173412,NULL
1737491693,c2a6e53f5f6a5ef01c86cf67ae5c669b,PennController,50,0,frases,NULL,PennController,51,_Trial_,Start,1737491173413,NULL
1737491693,c2a6e53f5f6a5ef01c86cf67ae5c669b,PennController,50,0,frases,NULL,Selector,classificacao,Selection,negativa,1737491181238,negativa;neutra;positiva
1737491693,c2a6e53f5f6a5ef01c86cf67ae5c669b,PennController,50,0,frases,NULL,PennController,51,_Trial_,End,1737491181239,NULL
1737491693,c2a6e53f5f6a5ef01c86cf67ae5c669b,PennController,51,0,frases,NULL,PennController,52,_Trial_,Start,1737491181240,NULL
1737491693,c2a6e53f5f6a5ef01c86cf67ae5c669b,PennController,51,0,frases,NULL,Selector,classificacao,Selection,negativa,1737491185689,negativa;neutra;positiva
1737491693,c2a6e53f5f6a5ef01c86cf67ae5c669b,PennController,51,0,frases,NULL,PennController,52,_Trial_,End,1737491185690,NULL
1737491693,c2a6e53f5f6a5ef01c86cf67ae5c669b,PennController,52,0,frases,NULL,PennController,53,_Trial_,Start,1737491185691,NULL
1737491693,c2a6e53f5f6a5ef01c86cf67ae5c669b,PennController,52,0,frases,NULL,Selector,classificacao,Selection,neutra,1737491187459,negativa;neutra;positiva
1737491693,c2a6e53f5f6a5ef01c86cf67ae5c669b,PennController,52,0,frases,NULL,PennController,53,_Trial_,End,1737491187460,NULL
1737491693,c2a6e53f5f6a5ef01c86cf67ae5c669b,PennController,53,0,frases,NULL,PennController,54,_Trial_,Start,1737491187461,NULL
1737491693,c2a6e53f5f6a5ef01c86cf67ae5c669b,PennController,53,0,frases,NULL,Selector,classificacao,Selection,neutra,1737491195878,negativa;neutra;positiva
1737491693,c2a6e53f5f6a5ef01c86cf67ae5c669b,PennController,53,0,frases,NULL,PennController,54,_Trial_,End,1737491195879,NULL
1737491693,c2a6e53f5f6a5ef01c86cf67ae5c669b,PennController,54,0,frases,NULL,PennController,55,_Trial_,Start,1737491195880,NULL
1737491693,c2a6e53f5f6a5ef01c86cf67ae5c669b,PennController,54,0,frases,NULL,Selector,classificacao,Selection,neutra,1737491198741,negativa;neutra;positiva
1737491693,c2a6e53f5f6a5ef01c86cf67ae5c669b,PennController,54,0,frases,NULL,PennController,55,_Trial_,End,1737491198742,NULL
1737491693,c2a6e53f5f6a5ef01c86cf67ae5c669b,PennController,55,0,frases,NULL,PennController,56,_Trial_,Start,1737491198743,NULL
1737491693,c2a6e53f5f6a5ef01c86cf67ae5c669b,PennController,55,0,frases,NULL,Selector,classificacao,Selection,neutra,1737491202735,negativa;neutra;positiva
1737491693,c2a6e53f5f6a5ef01c86cf67ae5c669b,PennController,55,0,frases,NULL,PennController,56,_Trial_,End,1737491202737,NULL
1737491693,c2a6e53f5f6a5ef01c86cf67ae5c669b,PennController,56,0,frases,NULL,PennController,57,_Trial_,Start,1737491202737,NULL
1737491693,c2a6e53f5f6a5ef01c86cf67ae5c669b,PennController,56,0,frases,NULL,Selector,classificacao,Selection,neutra,1737491208641,negativa;neutra;positiva
1737491693,c2a6e53f5f6a5ef01c86cf67ae5c669b,PennController,56,0,frases,NULL,PennController,57,_Trial_,End,1737491208642,NULL
1737491693,c2a6e53f5f6a5ef01c86cf67ae5c669b,PennController,57,0,frases,NULL,PennController,58,_Trial_,Start,1737491208643,NULL
1737491693,c2a6e53f5f6a5ef01c86cf67ae5c669b,PennController,57,0,frases,NULL,Selector,classificacao,Selection,negativa,1737491215176,negativa;neutra;positiva
1737491693,c2a6e53f5f6a5ef01c86cf67ae5c669b,PennController,57,0,frases,NULL,PennController,58,_Trial_,End,1737491215177,NULL
1737491693,c2a6e53f5f6a5ef01c86cf67ae5c669b,PennController,58,0,frases,NULL,PennController,59,_Trial_,Start,1737491215177,NULL
1737491693,c2a6e53f5f6a5ef01c86cf67ae5c669b,PennController,58,0,frases,NULL,Selector,classificacao,Selection,negativa,1737491224032,negativa;neutra;positiva
1737491693,c2a6e53f5f6a5ef01c86cf67ae5c669b,PennController,58,0,frases,NULL,PennController,59,_Trial_,End,1737491224033,NULL
1737491693,c2a6e53f5f6a5ef01c86cf67ae5c669b,PennController,59,0,frases,NULL,PennController,60,_Trial_,Start,1737491224034,NULL
1737491693,c2a6e53f5f6a5ef01c86cf67ae5c669b,PennController,59,0,frases,NULL,Selector,classificacao,Selection,positiva,1737491227418,negativa;neutra;positiva
1737491693,c2a6e53f5f6a5ef01c86cf67ae5c669b,PennController,59,0,frases,NULL,PennController,60,_Trial_,End,1737491227419,NULL
1737491693,c2a6e53f5f6a5ef01c86cf67ae5c669b,PennController,60,0,frases,NULL,PennController,61,_Trial_,Start,1737491227420,NULL
1737491693,c2a6e53f5f6a5ef01c86cf67ae5c669b,PennController,60,0,frases,NULL,Selector,classificacao,Selection,neutra,1737491236390,negativa;neutra;positiva
1737491693,c2a6e53f5f6a5ef01c86cf67ae5c669b,PennController,60,0,frases,NULL,PennController,61,_Trial_,End,1737491236391,NULL
1737491693,c2a6e53f5f6a5ef01c86cf67ae5c669b,PennController,61,0,frases,NULL,PennController,62,_Trial_,Start,1737491236392,NULL
1737491693,c2a6e53f5f6a5ef01c86cf67ae5c669b,PennController,61,0,frases,NULL,Selector,classificacao,Selection,neutra,1737491240091,negativa;neutra;positiva
1737491693,c2a6e53f5f6a5ef01c86cf67ae5c669b,PennController,61,0,frases,NULL,PennController,62,_Trial_,End,1737491240092,NULL
1737491693,c2a6e53f5f6a5ef01c86cf67ae5c669b,PennController,62,0,frases,NULL,PennController,63,_Trial_,Start,1737491240093,NULL
1737491693,c2a6e53f5f6a5ef01c86cf67ae5c669b,PennController,62,0,frases,NULL,Selector,classificacao,Selection,negativa,1737491243753,negativa;neutra;positiva
1737491693,c2a6e53f5f6a5ef01c86cf67ae5c669b,PennController,62,0,frases,NULL,PennController,63,_Trial_,End,1737491243754,NULL
1737491693,c2a6e53f5f6a5ef01c86cf67ae5c669b,PennController,63,0,frases,NULL,PennController,64,_Trial_,Start,1737491243754,NULL
1737491693,c2a6e53f5f6a5ef01c86cf67ae5c669b,PennController,63,0,frases,NULL,Selector,classificacao,Selection,neutra,1737491248718,negativa;neutra;positiva
1737491693,c2a6e53f5f6a5ef01c86cf67ae5c669b,PennController,63,0,frases,NULL,PennController,64,_Trial_,End,1737491248719,NULL
1737491693,c2a6e53f5f6a5ef01c86cf67ae5c669b,PennController,64,0,frases,NULL,PennController,65,_Trial_,Start,1737491248720,NULL
1737491693,c2a6e53f5f6a5ef01c86cf67ae5c669b,PennController,64,0,frases,NULL,Selector,classificacao,Selection,neutra,1737491252004,negativa;neutra;positiva
1737491693,c2a6e53f5f6a5ef01c86cf67ae5c669b,PennController,64,0,frases,NULL,PennController,65,_Trial_,End,1737491252005,NULL
1737491693,c2a6e53f5f6a5ef01c86cf67ae5c669b,PennController,65,0,frases,NULL,PennController,66,_Trial_,Start,1737491252006,NULL
1737491693,c2a6e53f5f6a5ef01c86cf67ae5c669b,PennController,65,0,frases,NULL,Selector,classificacao,Selection,neutra,1737491254402,negativa;neutra;positiva
1737491693,c2a6e53f5f6a5ef01c86cf67ae5c669b,PennController,65,0,frases,NULL,PennController,66,_Trial_,End,1737491254403,NULL
1737491693,c2a6e53f5f6a5ef01c86cf67ae5c669b,PennController,66,0,frases,NULL,PennController,67,_Trial_,Start,1737491254404,NULL
1737491693,c2a6e53f5f6a5ef01c86cf67ae5c669b,PennController,66,0,frases,NULL,Selector,classificacao,Selection,negativa,1737491262188,negativa;neutra;positiva
1737491693,c2a6e53f5f6a5ef01c86cf67ae5c669b,PennController,66,0,frases,NULL,PennController,67,_Trial_,End,1737491262189,NULL
1737491693,c2a6e53f5f6a5ef01c86cf67ae5c669b,PennController,67,0,frases,NULL,PennController,68,_Trial_,Start,1737491262190,NULL
1737491693,c2a6e53f5f6a5ef01c86cf67ae5c669b,PennController,67,0,frases,NULL,Selector,classificacao,Selection,neutra,1737491264640,negativa;neutra;positiva
1737491693,c2a6e53f5f6a5ef01c86cf67ae5c669b,PennController,67,0,frases,NULL,PennController,68,_Trial_,End,1737491264641,NULL
1737491693,c2a6e53f5f6a5ef01c86cf67ae5c669b,PennController,68,0,frases,NULL,PennController,69,_Trial_,Start,1737491264642,NULL
1737491693,c2a6e53f5f6a5ef01c86cf67ae5c669b,PennController,68,0,frases,NULL,Selector,classificacao,Selection,positiva,1737491268800,negativa;neutra;positiva
1737491693,c2a6e53f5f6a5ef01c86cf67ae5c669b,PennController,68,0,frases,NULL,PennController,69,_Trial_,End,1737491268801,NULL
1737491693,c2a6e53f5f6a5ef01c86cf67ae5c669b,PennController,69,0,frases,NULL,PennController,70,_Trial_,Start,1737491268802,NULL
1737491693,c2a6e53f5f6a5ef01c86cf67ae5c669b,PennController,69,0,frases,NULL,Selector,classificacao,Selection,negativa,1737491277826,negativa;neutra;positiva
1737491693,c2a6e53f5f6a5ef01c86cf67ae5c669b,PennController,69,0,frases,NULL,PennController,70,_Trial_,End,1737491277827,NULL
1737491693,c2a6e53f5f6a5ef01c86cf67ae5c669b,PennController,70,0,frases,NULL,PennController,71,_Trial_,Start,1737491277828,NULL
1737491693,c2a6e53f5f6a5ef01c86cf67ae5c669b,PennController,70,0,frases,NULL,Selector,classificacao,Selection,negativa,1737491282377,negativa;neutra;positiva
1737491693,c2a6e53f5f6a5ef01c86cf67ae5c669b,PennController,70,0,frases,NULL,PennController,71,_Trial_,End,1737491282378,NULL
1737491693,c2a6e53f5f6a5ef01c86cf67ae5c669b,PennController,71,0,frases,NULL,PennController,72,_Trial_,Start,1737491282379,NULL
1737491693,c2a6e53f5f6a5ef01c86cf67ae5c669b,PennController,71,0,frases,NULL,Selector,classificacao,Selection,neutra,1737491284942,negativa;neutra;positiva
1737491693,c2a6e53f5f6a5ef01c86cf67ae5c669b,PennController,71,0,frases,NULL,PennController,72,_Trial_,End,1737491284943,NULL
1737491693,c2a6e53f5f6a5ef01c86cf67ae5c669b,PennController,72,0,frases,NULL,PennController,73,_Trial_,Start,1737491284943,NULL
1737491693,c2a6e53f5f6a5ef01c86cf67ae5c669b,PennController,72,0,frases,NULL,Selector,classificacao,Selection,neutra,1737491289290,negativa;neutra;positiva
1737491693,c2a6e53f5f6a5ef01c86cf67ae5c669b,PennController,72,0,frases,NULL,PennController,73,_Trial_,End,1737491289291,NULL
1737491693,c2a6e53f5f6a5ef01c86cf67ae5c669b,PennController,73,0,frases,NULL,PennController,74,_Trial_,Start,1737491289291,NULL
1737491693,c2a6e53f5f6a5ef01c86cf67ae5c669b,PennController,73,0,frases,NULL,Selector,classificacao,Selection,neutra,1737491295459,negativa;neutra;positiva
1737491693,c2a6e53f5f6a5ef01c86cf67ae5c669b,PennController,73,0,frases,NULL,PennController,74,_Trial_,End,1737491295460,NULL
1737491693,c2a6e53f5f6a5ef01c86cf67ae5c669b,PennController,74,0,frases,NULL,PennController,75,_Trial_,Start,1737491295460,NULL
1737491693,c2a6e53f5f6a5ef01c86cf67ae5c669b,PennController,74,0,frases,NULL,Selector,classificacao,Selection,neutra,1737491302392,negativa;neutra;positiva
1737491693,c2a6e53f5f6a5ef01c86cf67ae5c669b,PennController,74,0,frases,NULL,PennController,75,_Trial_,End,1737491302393,NULL
1737491693,c2a6e53f5f6a5ef01c86cf67ae5c669b,PennController,75,0,frases,NULL,PennController,76,_Trial_,Start,1737491302393,NULL
1737491693,c2a6e53f5f6a5ef01c86cf67ae5c669b,PennController,75,0,frases,NULL,Selector,classificacao,Selection,neutra,1737491305043,negativa;neutra;positiva
1737491693,c2a6e53f5f6a5ef01c86cf67ae5c669b,PennController,75,0,frases,NULL,PennController,76,_Trial_,End,1737491305044,NULL
1737491693,c2a6e53f5f6a5ef01c86cf67ae5c669b,PennController,76,0,frases,NULL,PennController,77,_Trial_,Start,1737491305044,NULL
1737491693,c2a6e53f5f6a5ef01c86cf67ae5c669b,PennController,76,0,frases,NULL,Selector,classificacao,Selection,positiva,1737491311940,negativa;neutra;positiva
1737491693,c2a6e53f5f6a5ef01c86cf67ae5c669b,PennController,76,0,frases,NULL,PennController,77,_Trial_,End,1737491311941,NULL
1737491693,c2a6e53f5f6a5ef01c86cf67ae5c669b,PennController,77,0,frases,NULL,PennController,78,_Trial_,Start,1737491311943,NULL
1737491693,c2a6e53f5f6a5ef01c86cf67ae5c669b,PennController,77,0,frases,NULL,Selector,classificacao,Selection,neutra,1737491316742,negativa;neutra;positiva
1737491693,c2a6e53f5f6a5ef01c86cf67ae5c669b,PennController,77,0,frases,NULL,PennController,78,_Trial_,End,1737491316742,NULL
1737491693,c2a6e53f5f6a5ef01c86cf67ae5c669b,PennController,78,0,frases,NULL,PennController,79,_Trial_,Start,1737491316743,NULL
1737491693,c2a6e53f5f6a5ef01c86cf67ae5c669b,PennController,78,0,frases,NULL,Selector,classificacao,Selection,positiva,1737491321672,negativa;neutra;positiva
1737491693,c2a6e53f5f6a5ef01c86cf67ae5c669b,PennController,78,0,frases,NULL,PennController,79,_Trial_,End,1737491321673,NULL
1737491693,c2a6e53f5f6a5ef01c86cf67ae5c669b,PennController,79,0,frases,NULL,PennController,80,_Trial_,Start,1737491321673,NULL
1737491693,c2a6e53f5f6a5ef01c86cf67ae5c669b,PennController,79,0,frases,NULL,Selector,classificacao,Selection,neutra,1737491327022,negativa;neutra;positiva
1737491693,c2a6e53f5f6a5ef01c86cf67ae5c669b,PennController,79,0,frases,NULL,PennController,80,_Trial_,End,1737491327022,NULL
1737491693,c2a6e53f5f6a5ef01c86cf67ae5c669b,PennController,80,0,frases,NULL,PennController,81,_Trial_,Start,1737491327022,NULL
1737491693,c2a6e53f5f6a5ef01c86cf67ae5c669b,PennController,80,0,frases,NULL,Selector,classificacao,Selection,negativa,1737491332842,negativa;neutra;positiva
1737491693,c2a6e53f5f6a5ef01c86cf67ae5c669b,PennController,80,0,frases,NULL,PennController,81,_Trial_,End,1737491332843,NULL
1737491693,c2a6e53f5f6a5ef01c86cf67ae5c669b,PennController,81,0,frases,NULL,PennController,82,_Trial_,Start,1737491332844,NULL
1737491693,c2a6e53f5f6a5ef01c86cf67ae5c669b,PennController,81,0,frases,NULL,Selector,classificacao,Selection,positiva,1737491336558,negativa;neutra;positiva
1737491693,c2a6e53f5f6a5ef01c86cf67ae5c669b,PennController,81,0,frases,NULL,PennController,82,_Trial_,End,1737491336559,NULL
1737491693,c2a6e53f5f6a5ef01c86cf67ae5c669b,PennController,82,0,frases,NULL,PennController,83,_Trial_,Start,1737491336560,NULL
1737491693,c2a6e53f5f6a5ef01c86cf67ae5c669b,PennController,82,0,frases,NULL,Selector,classificacao,Selection,negativa,1737491339729,negativa;neutra;positiva
1737491693,c2a6e53f5f6a5ef01c86cf67ae5c669b,PennController,82,0,frases,NULL,PennController,83,_Trial_,End,1737491339730,NULL
1737491693,c2a6e53f5f6a5ef01c86cf67ae5c669b,PennController,83,0,frases,NULL,PennController,84,_Trial_,Start,1737491339730,NULL
1737491693,c2a6e53f5f6a5ef01c86cf67ae5c669b,PennController,83,0,frases,NULL,Selector,classificacao,Selection,neutra,1737491342692,negativa;neutra;positiva
1737491693,c2a6e53f5f6a5ef01c86cf67ae5c669b,PennController,83,0,frases,NULL,PennController,84,_Trial_,End,1737491342692,NULL
1737491693,c2a6e53f5f6a5ef01c86cf67ae5c669b,PennController,84,0,frases,NULL,PennController,85,_Trial_,Start,1737491342693,NULL
1737491693,c2a6e53f5f6a5ef01c86cf67ae5c669b,PennController,84,0,frases,NULL,Selector,classificacao,Selection,neutra,1737491346617,negativa;neutra;positiva
1737491693,c2a6e53f5f6a5ef01c86cf67ae5c669b,PennController,84,0,frases,NULL,PennController,85,_Trial_,End,1737491346617,NULL
1737491693,c2a6e53f5f6a5ef01c86cf67ae5c669b,PennController,85,0,frases,NULL,PennController,86,_Trial_,Start,1737491346618,NULL
1737491693,c2a6e53f5f6a5ef01c86cf67ae5c669b,PennController,85,0,frases,NULL,Selector,classificacao,Selection,neutra,1737491349633,negativa;neutra;positiva
1737491693,c2a6e53f5f6a5ef01c86cf67ae5c669b,PennController,85,0,frases,NULL,PennController,86,_Trial_,End,1737491349633,NULL
1737491693,c2a6e53f5f6a5ef01c86cf67ae5c669b,PennController,86,0,frases,NULL,PennController,87,_Trial_,Start,1737491349633,NULL
1737491693,c2a6e53f5f6a5ef01c86cf67ae5c669b,PennController,86,0,frases,NULL,Selector,classificacao,Selection,neutra,1737491356379,negativa;neutra;positiva
1737491693,c2a6e53f5f6a5ef01c86cf67ae5c669b,PennController,86,0,frases,NULL,PennController,87,_Trial_,End,1737491356379,NULL
1737491693,c2a6e53f5f6a5ef01c86cf67ae5c669b,PennController,87,0,frases,NULL,PennController,88,_Trial_,Start,1737491356379,NULL
1737491693,c2a6e53f5f6a5ef01c86cf67ae5c669b,PennController,87,0,frases,NULL,Selector,classificacao,Selection,neutra,1737491360679,negativa;neutra;positiva
1737491693,c2a6e53f5f6a5ef01c86cf67ae5c669b,PennController,87,0,frases,NULL,PennController,88,_Trial_,End,1737491360679,NULL
1737491693,c2a6e53f5f6a5ef01c86cf67ae5c669b,PennController,88,0,frases,NULL,PennController,89,_Trial_,Start,1737491360680,NULL
1737491693,c2a6e53f5f6a5ef01c86cf67ae5c669b,PennController,88,0,frases,NULL,Selector,classificacao,Selection,neutra,1737491366750,negativa;neutra;positiva
1737491693,c2a6e53f5f6a5ef01c86cf67ae5c669b,PennController,88,0,frases,NULL,PennController,89,_Trial_,End,1737491366751,NULL
1737491693,c2a6e53f5f6a5ef01c86cf67ae5c669b,PennController,89,0,frases,NULL,PennController,90,_Trial_,Start,1737491366752,NULL
1737491693,c2a6e53f5f6a5ef01c86cf67ae5c669b,PennController,89,0,frases,NULL,Selector,classificacao,Selection,neutra,1737491371109,negativa;neutra;positiva
1737491693,c2a6e53f5f6a5ef01c86cf67ae5c669b,PennController,89,0,frases,NULL,PennController,90,_Trial_,End,1737491371110,NULL
1737491693,c2a6e53f5f6a5ef01c86cf67ae5c669b,PennController,90,0,frases,NULL,PennController,91,_Trial_,Start,1737491371111,NULL
1737491693,c2a6e53f5f6a5ef01c86cf67ae5c669b,PennController,90,0,frases,NULL,Selector,classificacao,Selection,positiva,1737491376512,negativa;neutra;positiva
1737491693,c2a6e53f5f6a5ef01c86cf67ae5c669b,PennController,90,0,frases,NULL,PennController,91,_Trial_,End,1737491376513,NULL
1737491693,c2a6e53f5f6a5ef01c86cf67ae5c669b,PennController,91,0,frases,NULL,PennController,92,_Trial_,Start,1737491376513,NULL
1737491693,c2a6e53f5f6a5ef01c86cf67ae5c669b,PennController,91,0,frases,NULL,Selector,classificacao,Selection,neutra,1737491378369,negativa;neutra;positiva
1737491693,c2a6e53f5f6a5ef01c86cf67ae5c669b,PennController,91,0,frases,NULL,PennController,92,_Trial_,End,1737491378369,NULL
1737491693,c2a6e53f5f6a5ef01c86cf67ae5c669b,PennController,92,0,frases,NULL,PennController,93,_Trial_,Start,1737491378370,NULL
1737491693,c2a6e53f5f6a5ef01c86cf67ae5c669b,PennController,92,0,frases,NULL,Selector,classificacao,Selection,neutra,1737491379240,negativa;neutra;positiva
1737491693,c2a6e53f5f6a5ef01c86cf67ae5c669b,PennController,92,0,frases,NULL,PennController,93,_Trial_,End,1737491379241,NULL
1737491693,c2a6e53f5f6a5ef01c86cf67ae5c669b,PennController,93,0,frases,NULL,PennController,94,_Trial_,Start,1737491379241,NULL
1737491693,c2a6e53f5f6a5ef01c86cf67ae5c669b,PennController,93,0,frases,NULL,Selector,classificacao,Selection,neutra,1737491386410,negativa;neutra;positiva
1737491693,c2a6e53f5f6a5ef01c86cf67ae5c669b,PennController,93,0,frases,NULL,PennController,94,_Trial_,End,1737491386411,NULL
1737491693,c2a6e53f5f6a5ef01c86cf67ae5c669b,PennController,94,0,frases,NULL,PennController,95,_Trial_,Start,1737491386412,NULL
1737491693,c2a6e53f5f6a5ef01c86cf67ae5c669b,PennController,94,0,frases,NULL,Selector,classificacao,Selection,negativa,1737491391604,negativa;neutra;positiva
1737491693,c2a6e53f5f6a5ef01c86cf67ae5c669b,PennController,94,0,frases,NULL,PennController,95,_Trial_,End,1737491391604,NULL
1737491693,c2a6e53f5f6a5ef01c86cf67ae5c669b,PennController,95,0,frases,NULL,PennController,96,_Trial_,Start,1737491391605,NULL
1737491693,c2a6e53f5f6a5ef01c86cf67ae5c669b,PennController,95,0,frases,NULL,Selector,classificacao,Selection,neutra,1737491397086,negativa;neutra;positiva
1737491693,c2a6e53f5f6a5ef01c86cf67ae5c669b,PennController,95,0,frases,NULL,PennController,96,_Trial_,End,1737491397087,NULL
1737491693,c2a6e53f5f6a5ef01c86cf67ae5c669b,PennController,96,0,frases,NULL,PennController,97,_Trial_,Start,1737491397087,NULL
1737491693,c2a6e53f5f6a5ef01c86cf67ae5c669b,PennController,96,0,frases,NULL,Selector,classificacao,Selection,negativa,1737491400923,negativa;neutra;positiva
1737491693,c2a6e53f5f6a5ef01c86cf67ae5c669b,PennController,96,0,frases,NULL,PennController,97,_Trial_,End,1737491400924,NULL
1737491693,c2a6e53f5f6a5ef01c86cf67ae5c669b,PennController,97,0,frases,NULL,PennController,98,_Trial_,Start,1737491400924,NULL
1737491693,c2a6e53f5f6a5ef01c86cf67ae5c669b,PennController,97,0,frases,NULL,Selector,classificacao,Selection,neutra,1737491407023,negativa;neutra;positiva
1737491693,c2a6e53f5f6a5ef01c86cf67ae5c669b,PennController,97,0,frases,NULL,PennController,98,_Trial_,End,1737491407023,NULL
1737491693,c2a6e53f5f6a5ef01c86cf67ae5c669b,PennController,98,0,frases,NULL,PennController,99,_Trial_,Start,1737491407024,NULL
1737491693,c2a6e53f5f6a5ef01c86cf67ae5c669b,PennController,98,0,frases,NULL,Selector,classificacao,Selection,neutra,1737491409373,negativa;neutra;positiva
1737491693,c2a6e53f5f6a5ef01c86cf67ae5c669b,PennController,98,0,frases,NULL,PennController,99,_Trial_,End,1737491409374,NULL
1737491693,c2a6e53f5f6a5ef01c86cf67ae5c669b,PennController,99,0,frases,NULL,PennController,100,_Trial_,Start,1737491409375,NULL
1737491693,c2a6e53f5f6a5ef01c86cf67ae5c669b,PennController,99,0,frases,NULL,Selector,classificacao,Selection,neutra,1737491412069,negativa;neutra;positiva
1737491693,c2a6e53f5f6a5ef01c86cf67ae5c669b,PennController,99,0,frases,NULL,PennController,100,_Trial_,End,1737491412070,NULL
1737491693,c2a6e53f5f6a5ef01c86cf67ae5c669b,PennController,100,0,frases,NULL,PennController,101,_Trial_,Start,1737491412071,NULL
1737491693,c2a6e53f5f6a5ef01c86cf67ae5c669b,PennController,100,0,frases,NULL,Selector,classificacao,Selection,positiva,1737491418111,negativa;neutra;positiva
1737491693,c2a6e53f5f6a5ef01c86cf67ae5c669b,PennController,100,0,frases,NULL,PennController,101,_Trial_,End,1737491418112,NULL
1737491693,c2a6e53f5f6a5ef01c86cf67ae5c669b,PennController,101,0,frases,NULL,PennController,102,_Trial_,Start,1737491418112,NULL
1737491693,c2a6e53f5f6a5ef01c86cf67ae5c669b,PennController,101,0,frases,NULL,Selector,classificacao,Selection,neutra,1737491427821,negativa;neutra;positiva
1737491693,c2a6e53f5f6a5ef01c86cf67ae5c669b,PennController,101,0,frases,NULL,PennController,102,_Trial_,End,1737491427821,NULL
1737491693,c2a6e53f5f6a5ef01c86cf67ae5c669b,PennController,102,0,frases,NULL,PennController,103,_Trial_,Start,1737491427822,NULL
1737491693,c2a6e53f5f6a5ef01c86cf67ae5c669b,PennController,102,0,frases,NULL,Selector,classificacao,Selection,neutra,1737491436043,negativa;neutra;positiva
1737491693,c2a6e53f5f6a5ef01c86cf67ae5c669b,PennController,102,0,frases,NULL,PennController,103,_Trial_,End,1737491436044,NULL
1737491693,c2a6e53f5f6a5ef01c86cf67ae5c669b,PennController,103,0,frases,NULL,PennController,104,_Trial_,Start,1737491436045,NULL
1737491693,c2a6e53f5f6a5ef01c86cf67ae5c669b,PennController,103,0,frases,NULL,Selector,classificacao,Selection,neutra,1737491438645,negativa;neutra;positiva
1737491693,c2a6e53f5f6a5ef01c86cf67ae5c669b,PennController,103,0,frases,NULL,PennController,104,_Trial_,End,1737491438645,NULL
1737491693,c2a6e53f5f6a5ef01c86cf67ae5c669b,PennController,104,0,frases,NULL,PennController,105,_Trial_,Start,1737491438646,NULL
1737491693,c2a6e53f5f6a5ef01c86cf67ae5c669b,PennController,104,0,frases,NULL,Selector,classificacao,Selection,neutra,1737491440787,negativa;neutra;positiva
1737491693,c2a6e53f5f6a5ef01c86cf67ae5c669b,PennController,104,0,frases,NULL,PennController,105,_Trial_,End,1737491440787,NULL
1737491693,c2a6e53f5f6a5ef01c86cf67ae5c669b,PennController,105,0,frases,NULL,PennController,106,_Trial_,Start,1737491440788,NULL
1737491693,c2a6e53f5f6a5ef01c86cf67ae5c669b,PennController,105,0,frases,NULL,Selector,classificacao,Selection,neutra,1737491442315,negativa;neutra;positiva
1737491693,c2a6e53f5f6a5ef01c86cf67ae5c669b,PennController,105,0,frases,NULL,PennController,106,_Trial_,End,1737491442315,NULL
1737491693,c2a6e53f5f6a5ef01c86cf67ae5c669b,PennController,106,0,frases,NULL,PennController,107,_Trial_,Start,1737491442315,NULL
1737491693,c2a6e53f5f6a5ef01c86cf67ae5c669b,PennController,106,0,frases,NULL,Selector,classificacao,Selection,neutra,1737491444832,negativa;neutra;positiva
1737491693,c2a6e53f5f6a5ef01c86cf67ae5c669b,PennController,106,0,frases,NULL,PennController,107,_Trial_,End,1737491444833,NULL
1737491693,c2a6e53f5f6a5ef01c86cf67ae5c669b,PennController,107,0,frases,NULL,PennController,108,_Trial_,Start,1737491444833,NULL
1737491693,c2a6e53f5f6a5ef01c86cf67ae5c669b,PennController,107,0,frases,NULL,Selector,classificacao,Selection,neutra,1737491448213,negativa;neutra;positiva
1737491693,c2a6e53f5f6a5ef01c86cf67ae5c669b,PennController,107,0,frases,NULL,PennController,108,_Trial_,End,1737491448213,NULL
1737491693,c2a6e53f5f6a5ef01c86cf67ae5c669b,PennController,108,0,frases,NULL,PennController,109,_Trial_,Start,1737491448214,NULL
1737491693,c2a6e53f5f6a5ef01c86cf67ae5c669b,PennController,108,0,frases,NULL,Selector,classificacao,Selection,neutra,1737491455842,negativa;neutra;positiva
1737491693,c2a6e53f5f6a5ef01c86cf67ae5c669b,PennController,108,0,frases,NULL,PennController,109,_Trial_,End,1737491455843,NULL
1737491693,c2a6e53f5f6a5ef01c86cf67ae5c669b,PennController,109,0,frases,NULL,PennController,110,_Trial_,Start,1737491455843,NULL
1737491693,c2a6e53f5f6a5ef01c86cf67ae5c669b,PennController,109,0,frases,NULL,Selector,classificacao,Selection,neutra,1737491460977,negativa;neutra;positiva
1737491693,c2a6e53f5f6a5ef01c86cf67ae5c669b,PennController,109,0,frases,NULL,PennController,110,_Trial_,End,1737491460977,NULL
1737491693,c2a6e53f5f6a5ef01c86cf67ae5c669b,PennController,110,0,frases,NULL,PennController,111,_Trial_,Start,1737491460978,NULL
1737491693,c2a6e53f5f6a5ef01c86cf67ae5c669b,PennController,110,0,frases,NULL,Selector,classificacao,Selection,negativa,1737491465839,negativa;neutra;positiva
1737491693,c2a6e53f5f6a5ef01c86cf67ae5c669b,PennController,110,0,frases,NULL,PennController,111,_Trial_,End,1737491465840,NULL
1737491693,c2a6e53f5f6a5ef01c86cf67ae5c669b,PennController,111,0,frases,NULL,PennController,112,_Trial_,Start,1737491465840,NULL
1737491693,c2a6e53f5f6a5ef01c86cf67ae5c669b,PennController,111,0,frases,NULL,Selector,classificacao,Selection,positiva,1737491470886,negativa;neutra;positiva
1737491693,c2a6e53f5f6a5ef01c86cf67ae5c669b,PennController,111,0,frases,NULL,PennController,112,_Trial_,End,1737491470887,NULL
1737491693,c2a6e53f5f6a5ef01c86cf67ae5c669b,PennController,112,0,frases,NULL,PennController,113,_Trial_,Start,1737491470888,NULL
1737491693,c2a6e53f5f6a5ef01c86cf67ae5c669b,PennController,112,0,frases,NULL,Selector,classificacao,Selection,neutra,1737491478103,negativa;neutra;positiva
1737491693,c2a6e53f5f6a5ef01c86cf67ae5c669b,PennController,112,0,frases,NULL,PennController,113,_Trial_,End,1737491478104,NULL
1737491693,c2a6e53f5f6a5ef01c86cf67ae5c669b,PennController,113,0,frases,NULL,PennController,114,_Trial_,Start,1737491478104,NULL
1737491693,c2a6e53f5f6a5ef01c86cf67ae5c669b,PennController,113,0,frases,NULL,Selector,classificacao,Selection,neutra,1737491479959,negativa;neutra;positiva
1737491693,c2a6e53f5f6a5ef01c86cf67ae5c669b,PennController,113,0,frases,NULL,PennController,114,_Trial_,End,1737491479960,NULL
1737491693,c2a6e53f5f6a5ef01c86cf67ae5c669b,PennController,114,0,frases,NULL,PennController,115,_Trial_,Start,1737491479960,NULL
1737491693,c2a6e53f5f6a5ef01c86cf67ae5c669b,PennController,114,0,frases,NULL,Selector,classificacao,Selection,positiva,1737491486329,negativa;neutra;positiva
1737491693,c2a6e53f5f6a5ef01c86cf67ae5c669b,PennController,114,0,frases,NULL,PennController,115,_Trial_,End,1737491486329,NULL
1737491693,c2a6e53f5f6a5ef01c86cf67ae5c669b,PennController,115,0,frases,NULL,PennController,116,_Trial_,Start,1737491486330,NULL
1737491693,c2a6e53f5f6a5ef01c86cf67ae5c669b,PennController,115,0,frases,NULL,Selector,classificacao,Selection,neutra,1737491493025,negativa;neutra;positiva
1737491693,c2a6e53f5f6a5ef01c86cf67ae5c669b,PennController,115,0,frases,NULL,PennController,116,_Trial_,End,1737491493026,NULL
1737491693,c2a6e53f5f6a5ef01c86cf67ae5c669b,PennController,116,0,frases,NULL,PennController,117,_Trial_,Start,1737491493026,NULL
1737491693,c2a6e53f5f6a5ef01c86cf67ae5c669b,PennController,116,0,frases,NULL,Selector,classificacao,Selection,neutra,1737491497251,negativa;neutra;positiva
1737491693,c2a6e53f5f6a5ef01c86cf67ae5c669b,PennController,116,0,frases,NULL,PennController,117,_Trial_,End,1737491497252,NULL
1737491693,c2a6e53f5f6a5ef01c86cf67ae5c669b,PennController,117,0,frases,NULL,PennController,118,_Trial_,Start,1737491497252,NULL
1737491693,c2a6e53f5f6a5ef01c86cf67ae5c669b,PennController,117,0,frases,NULL,Selector,classificacao,Selection,negativa,1737491505586,negativa;neutra;positiva
1737491693,c2a6e53f5f6a5ef01c86cf67ae5c669b,PennController,117,0,frases,NULL,PennController,118,_Trial_,End,1737491505587,NULL
1737491693,c2a6e53f5f6a5ef01c86cf67ae5c669b,PennController,118,0,frases,NULL,PennController,119,_Trial_,Start,1737491505587,NULL
1737491693,c2a6e53f5f6a5ef01c86cf67ae5c669b,PennController,118,0,frases,NULL,Selector,classificacao,Selection,neutra,1737491509411,negativa;neutra;positiva
1737491693,c2a6e53f5f6a5ef01c86cf67ae5c669b,PennController,118,0,frases,NULL,PennController,119,_Trial_,End,1737491509411,NULL
1737491693,c2a6e53f5f6a5ef01c86cf67ae5c669b,PennController,119,0,frases,NULL,PennController,120,_Trial_,Start,1737491509412,NULL
1737491693,c2a6e53f5f6a5ef01c86cf67ae5c669b,PennController,119,0,frases,NULL,Selector,classificacao,Selection,negativa,1737491513486,negativa;neutra;positiva
1737491693,c2a6e53f5f6a5ef01c86cf67ae5c669b,PennController,119,0,frases,NULL,PennController,120,_Trial_,End,1737491513487,NULL
1737491693,c2a6e53f5f6a5ef01c86cf67ae5c669b,PennController,120,0,frases,NULL,PennController,121,_Trial_,Start,1737491513488,NULL
1737491693,c2a6e53f5f6a5ef01c86cf67ae5c669b,PennController,120,0,frases,NULL,Selector,classificacao,Selection,negativa,1737491517614,negativa;neutra;positiva
1737491693,c2a6e53f5f6a5ef01c86cf67ae5c669b,PennController,120,0,frases,NULL,PennController,121,_Trial_,End,1737491517615,NULL
1737491693,c2a6e53f5f6a5ef01c86cf67ae5c669b,PennController,121,0,frases,NULL,PennController,122,_Trial_,Start,1737491517616,NULL
1737491693,c2a6e53f5f6a5ef01c86cf67ae5c669b,PennController,121,0,frases,NULL,Selector,classificacao,Selection,negativa,1737491521120,negativa;neutra;positiva
1737491693,c2a6e53f5f6a5ef01c86cf67ae5c669b,PennController,121,0,frases,NULL,PennController,122,_Trial_,End,1737491521121,NULL
1737491693,c2a6e53f5f6a5ef01c86cf67ae5c669b,PennController,122,0,frases,NULL,PennController,123,_Trial_,Start,1737491521122,NULL
1737491693,c2a6e53f5f6a5ef01c86cf67ae5c669b,PennController,122,0,frases,NULL,Selector,classificacao,Selection,negativa,1737491524662,negativa;neutra;positiva
1737491693,c2a6e53f5f6a5ef01c86cf67ae5c669b,PennController,122,0,frases,NULL,PennController,123,_Trial_,End,1737491524663,NULL
1737491693,c2a6e53f5f6a5ef01c86cf67ae5c669b,PennController,123,0,frases,NULL,PennController,124,_Trial_,Start,1737491524664,NULL
1737491693,c2a6e53f5f6a5ef01c86cf67ae5c669b,PennController,123,0,frases,NULL,Selector,classificacao,Selection,neutra,1737491528408,negativa;neutra;positiva
1737491693,c2a6e53f5f6a5ef01c86cf67ae5c669b,PennController,123,0,frases,NULL,PennController,124,_Trial_,End,1737491528409,NULL
1737491693,c2a6e53f5f6a5ef01c86cf67ae5c669b,PennController,124,0,frases,NULL,PennController,125,_Trial_,Start,1737491528410,NULL
1737491693,c2a6e53f5f6a5ef01c86cf67ae5c669b,PennController,124,0,frases,NULL,Selector,classificacao,Selection,neutra,1737491534658,negativa;neutra;positiva
1737491693,c2a6e53f5f6a5ef01c86cf67ae5c669b,PennController,124,0,frases,NULL,PennController,125,_Trial_,End,1737491534659,NULL
1737491693,c2a6e53f5f6a5ef01c86cf67ae5c669b,PennController,125,0,frases,NULL,PennController,126,_Trial_,Start,1737491534660,NULL
1737491693,c2a6e53f5f6a5ef01c86cf67ae5c669b,PennController,125,0,frases,NULL,Selector,classificacao,Selection,neutra,1737491546500,negativa;neutra;positiva
1737491693,c2a6e53f5f6a5ef01c86cf67ae5c669b,PennController,125,0,frases,NULL,PennController,126,_Trial_,End,1737491546502,NULL
1737491693,c2a6e53f5f6a5ef01c86cf67ae5c669b,PennController,126,0,frases,NULL,PennController,127,_Trial_,Start,1737491546503,NULL
1737491693,c2a6e53f5f6a5ef01c86cf67ae5c669b,PennController,126,0,frases,NULL,Selector,classificacao,Selection,negativa,1737491554558,negativa;neutra;positiva
1737491693,c2a6e53f5f6a5ef01c86cf67ae5c669b,PennController,126,0,frases,NULL,PennController,127,_Trial_,End,1737491554559,NULL
1737491693,c2a6e53f5f6a5ef01c86cf67ae5c669b,PennController,127,0,frases,NULL,PennController,128,_Trial_,Start,1737491554561,NULL
1737491693,c2a6e53f5f6a5ef01c86cf67ae5c669b,PennController,127,0,frases,NULL,Selector,classificacao,Selection,neutra,1737491556460,negativa;neutra;positiva
1737491693,c2a6e53f5f6a5ef01c86cf67ae5c669b,PennController,127,0,frases,NULL,PennController,128,_Trial_,End,1737491556461,NULL
1737491693,c2a6e53f5f6a5ef01c86cf67ae5c669b,PennController,128,0,frases,NULL,PennController,129,_Trial_,Start,1737491556462,NULL
1737491693,c2a6e53f5f6a5ef01c86cf67ae5c669b,PennController,128,0,frases,NULL,Selector,classificacao,Selection,positiva,1737491563732,negativa;neutra;positiva
1737491693,c2a6e53f5f6a5ef01c86cf67ae5c669b,PennController,128,0,frases,NULL,PennController,129,_Trial_,End,1737491563733,NULL
1737491693,c2a6e53f5f6a5ef01c86cf67ae5c669b,PennController,129,0,frases,NULL,PennController,130,_Trial_,Start,1737491563734,NULL
1737491693,c2a6e53f5f6a5ef01c86cf67ae5c669b,PennController,129,0,frases,NULL,Selector,classificacao,Selection,neutra,1737491566706,negativa;neutra;positiva
1737491693,c2a6e53f5f6a5ef01c86cf67ae5c669b,PennController,129,0,frases,NULL,PennController,130,_Trial_,End,1737491566707,NULL
1737491693,c2a6e53f5f6a5ef01c86cf67ae5c669b,PennController,130,0,frases,NULL,PennController,131,_Trial_,Start,1737491566708,NULL
1737491693,c2a6e53f5f6a5ef01c86cf67ae5c669b,PennController,130,0,frases,NULL,Selector,classificacao,Selection,positiva,1737491568550,negativa;neutra;positiva
1737491693,c2a6e53f5f6a5ef01c86cf67ae5c669b,PennController,130,0,frases,NULL,PennController,131,_Trial_,End,1737491568551,NULL
1737491693,c2a6e53f5f6a5ef01c86cf67ae5c669b,PennController,131,0,frases,NULL,PennController,132,_Trial_,Start,1737491568552,NULL
1737491693,c2a6e53f5f6a5ef01c86cf67ae5c669b,PennController,131,0,frases,NULL,Selector,classificacao,Selection,neutra,1737491574520,negativa;neutra;positiva
1737491693,c2a6e53f5f6a5ef01c86cf67ae5c669b,PennController,131,0,frases,NULL,PennController,132,_Trial_,End,1737491574522,NULL
1737491693,c2a6e53f5f6a5ef01c86cf67ae5c669b,PennController,132,0,frases,NULL,PennController,133,_Trial_,Start,1737491574523,NULL
1737491693,c2a6e53f5f6a5ef01c86cf67ae5c669b,PennController,132,0,frases,NULL,Selector,classificacao,Selection,neutra,1737491576206,negativa;neutra;positiva
1737491693,c2a6e53f5f6a5ef01c86cf67ae5c669b,PennController,132,0,frases,NULL,PennController,133,_Trial_,End,1737491576207,NULL
1737491693,c2a6e53f5f6a5ef01c86cf67ae5c669b,PennController,133,0,frases,NULL,PennController,134,_Trial_,Start,1737491576208,NULL
1737491693,c2a6e53f5f6a5ef01c86cf67ae5c669b,PennController,133,0,frases,NULL,Selector,classificacao,Selection,neutra,1737491588443,negativa;neutra;positiva
1737491693,c2a6e53f5f6a5ef01c86cf67ae5c669b,PennController,133,0,frases,NULL,PennController,134,_Trial_,End,1737491588444,NULL
1737491693,c2a6e53f5f6a5ef01c86cf67ae5c669b,PennController,134,0,frases,NULL,PennController,135,_Trial_,Start,1737491588445,NULL
1737491693,c2a6e53f5f6a5ef01c86cf67ae5c669b,PennController,134,0,frases,NULL,Selector,classificacao,Selection,negativa,1737491595547,negativa;neutra;positiva
1737491693,c2a6e53f5f6a5ef01c86cf67ae5c669b,PennController,134,0,frases,NULL,PennController,135,_Trial_,End,1737491595548,NULL
1737491693,c2a6e53f5f6a5ef01c86cf67ae5c669b,PennController,135,0,frases,NULL,PennController,136,_Trial_,Start,1737491595549,NULL
1737491693,c2a6e53f5f6a5ef01c86cf67ae5c669b,PennController,135,0,frases,NULL,Selector,classificacao,Selection,negativa,1737491602436,negativa;neutra;positiva
1737491693,c2a6e53f5f6a5ef01c86cf67ae5c669b,PennController,135,0,frases,NULL,PennController,136,_Trial_,End,1737491602437,NULL
1737491693,c2a6e53f5f6a5ef01c86cf67ae5c669b,PennController,136,0,frases,NULL,PennController,137,_Trial_,Start,1737491602438,NULL
1737491693,c2a6e53f5f6a5ef01c86cf67ae5c669b,PennController,136,0,frases,NULL,Selector,classificacao,Selection,positiva,1737491610711,negativa;neutra;positiva
1737491693,c2a6e53f5f6a5ef01c86cf67ae5c669b,PennController,136,0,frases,NULL,PennController,137,_Trial_,End,1737491610711,NULL
1737491693,c2a6e53f5f6a5ef01c86cf67ae5c669b,PennController,137,0,frases,NULL,PennController,138,_Trial_,Start,1737491610712,NULL
1737491693,c2a6e53f5f6a5ef01c86cf67ae5c669b,PennController,137,0,frases,NULL,Selector,classificacao,Selection,neutra,1737491617996,negativa;neutra;positiva
1737491693,c2a6e53f5f6a5ef01c86cf67ae5c669b,PennController,137,0,frases,NULL,PennController,138,_Trial_,End,1737491617997,NULL
1737491693,c2a6e53f5f6a5ef01c86cf67ae5c669b,PennController,138,0,frases,NULL,PennController,139,_Trial_,Start,1737491617997,NULL
1737491693,c2a6e53f5f6a5ef01c86cf67ae5c669b,PennController,138,0,frases,NULL,Selector,classificacao,Selection,neutra,1737491620131,negativa;neutra;positiva
1737491693,c2a6e53f5f6a5ef01c86cf67ae5c669b,PennController,138,0,frases,NULL,PennController,139,_Trial_,End,1737491620132,NULL
1737491693,c2a6e53f5f6a5ef01c86cf67ae5c669b,PennController,139,0,frases,NULL,PennController,140,_Trial_,Start,1737491620132,NULL
1737491693,c2a6e53f5f6a5ef01c86cf67ae5c669b,PennController,139,0,frases,NULL,Selector,classificacao,Selection,positiva,1737491627267,negativa;neutra;positiva
1737491693,c2a6e53f5f6a5ef01c86cf67ae5c669b,PennController,139,0,frases,NULL,PennController,140,_Trial_,End,1737491627267,NULL
1737491693,c2a6e53f5f6a5ef01c86cf67ae5c669b,PennController,140,0,frases,NULL,PennController,141,_Trial_,Start,1737491627268,NULL
1737491693,c2a6e53f5f6a5ef01c86cf67ae5c669b,PennController,140,0,frases,NULL,Selector,classificacao,Selection,neutra,1737491631170,negativa;neutra;positiva
1737491693,c2a6e53f5f6a5ef01c86cf67ae5c669b,PennController,140,0,frases,NULL,PennController,141,_Trial_,End,1737491631171,NULL
1737491693,c2a6e53f5f6a5ef01c86cf67ae5c669b,PennController,141,0,frases,NULL,PennController,142,_Trial_,Start,1737491631172,NULL
1737491693,c2a6e53f5f6a5ef01c86cf67ae5c669b,PennController,141,0,frases,NULL,Selector,classificacao,Selection,neutra,1737491634687,negativa;neutra;positiva
1737491693,c2a6e53f5f6a5ef01c86cf67ae5c669b,PennController,141,0,frases,NULL,PennController,142,_Trial_,End,1737491634688,NULL
1737491693,c2a6e53f5f6a5ef01c86cf67ae5c669b,PennController,142,0,frases,NULL,PennController,143,_Trial_,Start,1737491634688,NULL
1737491693,c2a6e53f5f6a5ef01c86cf67ae5c669b,PennController,142,0,frases,NULL,Selector,classificacao,Selection,neutra,1737491636517,negativa;neutra;positiva
1737491693,c2a6e53f5f6a5ef01c86cf67ae5c669b,PennController,142,0,frases,NULL,PennController,143,_Trial_,End,1737491636518,NULL
1737491693,c2a6e53f5f6a5ef01c86cf67ae5c669b,PennController,143,0,frases,NULL,PennController,144,_Trial_,Start,1737491636519,NULL
1737491693,c2a6e53f5f6a5ef01c86cf67ae5c669b,PennController,143,0,frases,NULL,Selector,classificacao,Selection,neutra,1737491639827,negativa;neutra;positiva
1737491693,c2a6e53f5f6a5ef01c86cf67ae5c669b,PennController,143,0,frases,NULL,PennController,144,_Trial_,End,1737491639828,NULL
1737491693,c2a6e53f5f6a5ef01c86cf67ae5c669b,PennController,144,0,frases,NULL,PennController,145,_Trial_,Start,1737491639829,NULL
1737491693,c2a6e53f5f6a5ef01c86cf67ae5c669b,PennController,144,0,frases,NULL,Selector,classificacao,Selection,neutra,1737491646019,negativa;neutra;positiva
1737491693,c2a6e53f5f6a5ef01c86cf67ae5c669b,PennController,144,0,frases,NULL,PennController,145,_Trial_,End,1737491646020,NULL
1737491693,c2a6e53f5f6a5ef01c86cf67ae5c669b,PennController,145,0,frases,NULL,PennController,146,_Trial_,Start,1737491646022,NULL
1737491693,c2a6e53f5f6a5ef01c86cf67ae5c669b,PennController,145,0,frases,NULL,Selector,classificacao,Selection,positiva,1737491653753,negativa;neutra;positiva
1737491693,c2a6e53f5f6a5ef01c86cf67ae5c669b,PennController,145,0,frases,NULL,PennController,146,_Trial_,End,1737491653755,NULL
1737491693,c2a6e53f5f6a5ef01c86cf67ae5c669b,PennController,146,0,frases,NULL,PennController,147,_Trial_,Start,1737491653756,NULL
1737491693,c2a6e53f5f6a5ef01c86cf67ae5c669b,PennController,146,0,frases,NULL,Selector,classificacao,Selection,positiva,1737491657799,negativa;neutra;positiva
1737491693,c2a6e53f5f6a5ef01c86cf67ae5c669b,PennController,146,0,frases,NULL,PennController,147,_Trial_,End,1737491657800,NULL
1737491693,c2a6e53f5f6a5ef01c86cf67ae5c669b,PennController,147,0,frases,NULL,PennController,148,_Trial_,Start,1737491657801,NULL
1737491693,c2a6e53f5f6a5ef01c86cf67ae5c669b,PennController,147,0,frases,NULL,Selector,classificacao,Selection,neutra,1737491665125,negativa;neutra;positiva
1737491693,c2a6e53f5f6a5ef01c86cf67ae5c669b,PennController,147,0,frases,NULL,PennController,148,_Trial_,End,1737491665126,NULL
1737491693,c2a6e53f5f6a5ef01c86cf67ae5c669b,PennController,148,0,frases,NULL,PennController,149,_Trial_,Start,1737491665127,NULL
1737491693,c2a6e53f5f6a5ef01c86cf67ae5c669b,PennController,148,0,frases,NULL,Selector,classificacao,Selection,positiva,1737491667603,negativa;neutra;positiva
1737491693,c2a6e53f5f6a5ef01c86cf67ae5c669b,PennController,148,0,frases,NULL,PennController,149,_Trial_,End,1737491667604,NULL
1737491693,c2a6e53f5f6a5ef01c86cf67ae5c669b,PennController,149,0,frases,NULL,PennController,150,_Trial_,Start,1737491667605,NULL
1737491693,c2a6e53f5f6a5ef01c86cf67ae5c669b,PennController,149,0,frases,NULL,Selector,classificacao,Selection,neutra,1737491671383,negativa;neutra;positiva
1737491693,c2a6e53f5f6a5ef01c86cf67ae5c669b,PennController,149,0,frases,NULL,PennController,150,_Trial_,End,1737491671385,NULL
1737491693,c2a6e53f5f6a5ef01c86cf67ae5c669b,PennController,150,0,frases,NULL,PennController,151,_Trial_,Start,1737491671385,NULL
1737491693,c2a6e53f5f6a5ef01c86cf67ae5c669b,PennController,150,0,frases,NULL,Selector,classificacao,Selection,negativa,1737491679787,negativa;neutra;positiva
1737491693,c2a6e53f5f6a5ef01c86cf67ae5c669b,PennController,150,0,frases,NULL,PennController,151,_Trial_,End,1737491679788,NULL
1737491693,c2a6e53f5f6a5ef01c86cf67ae5c669b,PennController,151,0,frases,NULL,PennController,152,_Trial_,Start,1737491679788,NULL
1737491693,c2a6e53f5f6a5ef01c86cf67ae5c669b,PennController,151,0,frases,NULL,Selector,classificacao,Selection,negativa,1737491683559,negativa;neutra;positiva
1737491693,c2a6e53f5f6a5ef01c86cf67ae5c669b,PennController,151,0,frases,NULL,PennController,152,_Trial_,End,1737491683559,NULL
1737491693,c2a6e53f5f6a5ef01c86cf67ae5c669b,PennController,152,0,frases,NULL,PennController,153,_Trial_,Start,1737491683560,NULL
1737491693,c2a6e53f5f6a5ef01c86cf67ae5c669b,PennController,152,0,frases,NULL,Selector,classificacao,Selection,neutra,1737491686765,negativa;neutra;positiva
1737491693,c2a6e53f5f6a5ef01c86cf67ae5c669b,PennController,152,0,frases,NULL,PennController,153,_Trial_,End,1737491686766,NULL
1737491693,c2a6e53f5f6a5ef01c86cf67ae5c669b,PennController,153,0,frases,NULL,PennController,154,_Trial_,Start,1737491686767,NULL
1737491693,c2a6e53f5f6a5ef01c86cf67ae5c669b,PennController,153,0,frases,NULL,Selector,classificacao,Selection,positiva,1737491690483,negativa;neutra;positiva
1737491693,c2a6e53f5f6a5ef01c86cf67ae5c669b,PennController,153,0,frases,NULL,PennController,154,_Trial_,End,1737491690484,NULL
1737491693,c2a6e53f5f6a5ef01c86cf67ae5c669b,PennController,154,0,agradecimento,NULL,PennController,4,_Trial_,Start,1737491690485,NULL
1737491693,c2a6e53f5f6a5ef01c86cf67ae5c669b,PennController,154,0,agradecimento,NULL,PennController,4,_Trial_,End,1737491692616,NULL
#
# Results on Thu, 23 Jan 2025 13:07:25 GMT
# USER AGENT: Mozilla/5.0 (Windows NT 10.0; Win64; x64; rv:134.0) Gecko/20100101 Firefox/134.0
# Design number was non-random = 1
#
# Columns below this comment are as follows:
# 1. Results reception time.
# 2. MD5 hash of participant's IP address.
# 3. Controller name.
# 4. Order number of item.
# 5. Inner element number.
# 6. Label.
# 7. Latin Square Group.
# 8. PennElementType.
# 9. PennElementName.
# 10. Parameter.
# 11. Value.
# 12. EventTime.
# 13. Comments.
1737637645,bc2584302fffead698e1809107a60040,PennController,0,0,TCLE,NULL,PennController,0,_Trial_,Start,1737636491366,NULL
1737637645,bc2584302fffead698e1809107a60040,PennController,0,0,TCLE,NULL,PennController,0,_Trial_,End,1737636494376,NULL
1737637645,bc2584302fffead698e1809107a60040,PennController,3,0,instrucoes,NULL,PennController,3,_Trial_,Start,1737636494379,NULL
1737637645,bc2584302fffead698e1809107a60040,PennController,3,0,instrucoes,NULL,PennController,3,_Trial_,End,1737636495807,NULL
1737637645,bc2584302fffead698e1809107a60040,PennController,1,0,genero,NULL,PennController,1,_Trial_,Start,1737636495808,NULL
1737637645,bc2584302fffead698e1809107a60040,PennController,1,0,genero,NULL,DropDown,selecionaGenero,Selected,Masculino,1737636497459,0
1737637645,bc2584302fffead698e1809107a60040,PennController,1,0,genero,NULL,PennController,1,_Trial_,End,1737636498663,NULL
1737637645,bc2584302fffead698e1809107a60040,PennController,4,0,frases,NULL,PennController,5,_Trial_,Start,1737636498665,NULL
1737637645,bc2584302fffead698e1809107a60040,PennController,4,0,frases,NULL,Selector,classificacao,Selection,neutra,1737636502253,negativa;neutra;positiva
1737637645,bc2584302fffead698e1809107a60040,PennController,4,0,frases,NULL,PennController,5,_Trial_,End,1737636502254,NULL
1737637645,bc2584302fffead698e1809107a60040,PennController,5,0,frases,NULL,PennController,6,_Trial_,Start,1737636502255,NULL
1737637645,bc2584302fffead698e1809107a60040,PennController,5,0,frases,NULL,Selector,classificacao,Selection,neutra,1737636504285,negativa;neutra;positiva
1737637645,bc2584302fffead698e1809107a60040,PennController,5,0,frases,NULL,PennController,6,_Trial_,End,1737636504286,NULL
1737637645,bc2584302fffead698e1809107a60040,PennController,6,0,frases,NULL,PennController,7,_Trial_,Start,1737636504287,NULL
1737637645,bc2584302fffead698e1809107a60040,PennController,6,0,frases,NULL,Selector,classificacao,Selection,neutra,1737636507372,negativa;neutra;positiva
1737637645,bc2584302fffead698e1809107a60040,PennController,6,0,frases,NULL,PennController,7,_Trial_,End,1737636507373,NULL
1737637645,bc2584302fffead698e1809107a60040,PennController,7,0,frases,NULL,PennController,8,_Trial_,Start,1737636507374,NULL
1737637645,bc2584302fffead698e1809107a60040,PennController,7,0,frases,NULL,Selector,classificacao,Selection,negativa,1737636509133,negativa;neutra;positiva
1737637645,bc2584302fffead698e1809107a60040,PennController,7,0,frases,NULL,PennController,8,_Trial_,End,1737636509134,NULL
1737637645,bc2584302fffead698e1809107a60040,PennController,8,0,frases,NULL,PennController,9,_Trial_,Start,1737636509136,NULL
1737637645,bc2584302fffead698e1809107a60040,PennController,8,0,frases,NULL,Selector,classificacao,Selection,negativa,1737636516965,negativa;neutra;positiva
1737637645,bc2584302fffead698e1809107a60040,PennController,8,0,frases,NULL,PennController,9,_Trial_,End,1737636516966,NULL
1737637645,bc2584302fffead698e1809107a60040,PennController,9,0,frases,NULL,PennController,10,_Trial_,Start,1737636516967,NULL
1737637645,bc2584302fffead698e1809107a60040,PennController,9,0,frases,NULL,Selector,classificacao,Selection,positiva,1737636519374,negativa;neutra;positiva
1737637645,bc2584302fffead698e1809107a60040,PennController,9,0,frases,NULL,PennController,10,_Trial_,End,1737636519375,NULL
1737637645,bc2584302fffead698e1809107a60040,PennController,10,0,frases,NULL,PennController,11,_Trial_,Start,1737636519376,NULL
1737637645,bc2584302fffead698e1809107a60040,PennController,10,0,frases,NULL,Selector,classificacao,Selection,positiva,1737636527605,negativa;neutra;positiva
1737637645,bc2584302fffead698e1809107a60040,PennController,10,0,frases,NULL,PennController,11,_Trial_,End,1737636527606,NULL
1737637645,bc2584302fffead698e1809107a60040,PennController,11,0,frases,NULL,PennController,12,_Trial_,Start,1737636527607,NULL
1737637645,bc2584302fffead698e1809107a60040,PennController,11,0,frases,NULL,Selector,classificacao,Selection,positiva,1737636529997,negativa;neutra;positiva
1737637645,bc2584302fffead698e1809107a60040,PennController,11,0,frases,NULL,PennController,12,_Trial_,End,1737636529998,NULL
1737637645,bc2584302fffead698e1809107a60040,PennController,12,0,frases,NULL,PennController,13,_Trial_,Start,1737636529999,NULL
1737637645,bc2584302fffead698e1809107a60040,PennController,12,0,frases,NULL,Selector,classificacao,Selection,neutra,1737636533190,negativa;neutra;positiva
1737637645,bc2584302fffead698e1809107a60040,PennController,12,0,frases,NULL,PennController,13,_Trial_,End,1737636533191,NULL
1737637645,bc2584302fffead698e1809107a60040,PennController,13,0,frases,NULL,PennController,14,_Trial_,Start,1737636533191,NULL
1737637645,bc2584302fffead698e1809107a60040,PennController,13,0,frases,NULL,Selector,classificacao,Selection,positiva,1737636535430,negativa;neutra;positiva
1737637645,bc2584302fffead698e1809107a60040,PennController,13,0,frases,NULL,PennController,14,_Trial_,End,1737636535430,NULL
1737637645,bc2584302fffead698e1809107a60040,PennController,14,0,frases,NULL,PennController,15,_Trial_,Start,1737636535431,NULL
1737637645,bc2584302fffead698e1809107a60040,PennController,14,0,frases,NULL,Selector,classificacao,Selection,negativa,1737636539438,negativa;neutra;positiva
1737637645,bc2584302fffead698e1809107a60040,PennController,14,0,frases,NULL,PennController,15,_Trial_,End,1737636539439,NULL
1737637645,bc2584302fffead698e1809107a60040,PennController,15,0,frases,NULL,PennController,16,_Trial_,Start,1737636539439,NULL
1737637645,bc2584302fffead698e1809107a60040,PennController,15,0,frases,NULL,Selector,classificacao,Selection,neutra,1737636541614,negativa;neutra;positiva
1737637645,bc2584302fffead698e1809107a60040,PennController,15,0,frases,NULL,PennController,16,_Trial_,End,1737636541614,NULL
1737637645,bc2584302fffead698e1809107a60040,PennController,16,0,frases,NULL,PennController,17,_Trial_,Start,1737636541615,NULL
1737637645,bc2584302fffead698e1809107a60040,PennController,16,0,frases,NULL,Selector,classificacao,Selection,neutra,1737636544757,negativa;neutra;positiva
1737637645,bc2584302fffead698e1809107a60040,PennController,16,0,frases,NULL,PennController,17,_Trial_,End,1737636544758,NULL
1737637645,bc2584302fffead698e1809107a60040,PennController,17,0,frases,NULL,PennController,18,_Trial_,Start,1737636544758,NULL
1737637645,bc2584302fffead698e1809107a60040,PennController,17,0,frases,NULL,Selector,classificacao,Selection,positiva,1737636547637,negativa;neutra;positiva
1737637645,bc2584302fffead698e1809107a60040,PennController,17,0,frases,NULL,PennController,18,_Trial_,End,1737636547638,NULL
1737637645,bc2584302fffead698e1809107a60040,PennController,18,0,frases,NULL,PennController,19,_Trial_,Start,1737636547639,NULL
1737637645,bc2584302fffead698e1809107a60040,PennController,18,0,frases,NULL,Selector,classificacao,Selection,negativa,1737636550942,negativa;neutra;positiva
1737637645,bc2584302fffead698e1809107a60040,PennController,18,0,frases,NULL,PennController,19,_Trial_,End,1737636550942,NULL
1737637645,bc2584302fffead698e1809107a60040,PennController,19,0,frases,NULL,PennController,20,_Trial_,Start,1737636550943,NULL
1737637645,bc2584302fffead698e1809107a60040,PennController,19,0,frases,NULL,Selector,classificacao,Selection,negativa,1737636552309,negativa;neutra;positiva
1737637645,bc2584302fffead698e1809107a60040,PennController,19,0,frases,NULL,PennController,20,_Trial_,End,1737636552309,NULL
1737637645,bc2584302fffead698e1809107a60040,PennController,20,0,frases,NULL,PennController,21,_Trial_,Start,1737636552309,NULL
1737637645,bc2584302fffead698e1809107a60040,PennController,20,0,frases,NULL,Selector,classificacao,Selection,positiva,1737636559053,negativa;neutra;positiva
1737637645,bc2584302fffead698e1809107a60040,PennController,20,0,frases,NULL,PennController,21,_Trial_,End,1737636559054,NULL
1737637645,bc2584302fffead698e1809107a60040,PennController,21,0,frases,NULL,PennController,22,_Trial_,Start,1737636559054,NULL
1737637645,bc2584302fffead698e1809107a60040,PennController,21,0,frases,NULL,Selector,classificacao,Selection,negativa,1737636564437,negativa;neutra;positiva
1737637645,bc2584302fffead698e1809107a60040,PennController,21,0,frases,NULL,PennController,22,_Trial_,End,1737636564438,NULL
1737637645,bc2584302fffead698e1809107a60040,PennController,22,0,frases,NULL,PennController,23,_Trial_,Start,1737636564440,NULL
1737637645,bc2584302fffead698e1809107a60040,PennController,22,0,frases,NULL,Selector,classificacao,Selection,neutra,1737636567653,negativa;neutra;positiva
1737637645,bc2584302fffead698e1809107a60040,PennController,22,0,frases,NULL,PennController,23,_Trial_,End,1737636567654,NULL
1737637645,bc2584302fffead698e1809107a60040,PennController,23,0,frases,NULL,PennController,24,_Trial_,Start,1737636567654,NULL
1737637645,bc2584302fffead698e1809107a60040,PennController,23,0,frases,NULL,Selector,classificacao,Selection,negativa,1737636571573,negativa;neutra;positiva
1737637645,bc2584302fffead698e1809107a60040,PennController,23,0,frases,NULL,PennController,24,_Trial_,End,1737636571574,NULL
1737637645,bc2584302fffead698e1809107a60040,PennController,24,0,frases,NULL,PennController,25,_Trial_,Start,1737636571575,NULL
1737637645,bc2584302fffead698e1809107a60040,PennController,24,0,frases,NULL,Selector,classificacao,Selection,negativa,1737636577989,negativa;neutra;positiva
1737637645,bc2584302fffead698e1809107a60040,PennController,24,0,frases,NULL,PennController,25,_Trial_,End,1737636577989,NULL
1737637645,bc2584302fffead698e1809107a60040,PennController,25,0,frases,NULL,PennController,26,_Trial_,Start,1737636577990,NULL
1737637645,bc2584302fffead698e1809107a60040,PennController,25,0,frases,NULL,Selector,classificacao,Selection,negativa,1737636581076,negativa;neutra;positiva
1737637645,bc2584302fffead698e1809107a60040,PennController,25,0,frases,NULL,PennController,26,_Trial_,End,1737636581077,NULL
1737637645,bc2584302fffead698e1809107a60040,PennController,26,0,frases,NULL,PennController,27,_Trial_,Start,1737636581078,NULL
1737637645,bc2584302fffead698e1809107a60040,PennController,26,0,frases,NULL,Selector,classificacao,Selection,positiva,1737636583509,negativa;neutra;positiva
1737637645,bc2584302fffead698e1809107a60040,PennController,26,0,frases,NULL,PennController,27,_Trial_,End,1737636583510,NULL
1737637645,bc2584302fffead698e1809107a60040,PennController,27,0,frases,NULL,PennController,28,_Trial_,Start,1737636583510,NULL
1737637645,bc2584302fffead698e1809107a60040,PennController,27,0,frases,NULL,Selector,classificacao,Selection,positiva,1737636587876,negativa;neutra;positiva
1737637645,bc2584302fffead698e1809107a60040,PennController,27,0,frases,NULL,PennController,28,_Trial_,End,1737636587877,NULL
1737637645,bc2584302fffead698e1809107a60040,PennController,28,0,frases,NULL,PennController,29,_Trial_,Start,1737636587878,NULL
1737637645,bc2584302fffead698e1809107a60040,PennController,28,0,frases,NULL,Selector,classificacao,Selection,positiva,1737636592563,negativa;neutra;positiva
1737637645,bc2584302fffead698e1809107a60040,PennController,28,0,frases,NULL,PennController,29,_Trial_,End,1737636592565,NULL
1737637645,bc2584302fffead698e1809107a60040,PennController,29,0,frases,NULL,PennController,30,_Trial_,Start,1737636592566,NULL
1737637645,bc2584302fffead698e1809107a60040,PennController,29,0,frases,NULL,Selector,classificacao,Selection,negativa,1737636595189,negativa;neutra;positiva
1737637645,bc2584302fffead698e1809107a60040,PennController,29,0,frases,NULL,PennController,30,_Trial_,End,1737636595189,NULL
1737637645,bc2584302fffead698e1809107a60040,PennController,30,0,frases,NULL,PennController,31,_Trial_,Start,1737636595191,NULL
1737637645,bc2584302fffead698e1809107a60040,PennController,30,0,frases,NULL,Selector,classificacao,Selection,negativa,1737636598852,negativa;neutra;positiva
1737637645,bc2584302fffead698e1809107a60040,PennController,30,0,frases,NULL,PennController,31,_Trial_,End,1737636598853,NULL
1737637645,bc2584302fffead698e1809107a60040,PennController,31,0,frases,NULL,PennController,32,_Trial_,Start,1737636598854,NULL
1737637645,bc2584302fffead698e1809107a60040,PennController,31,0,frases,NULL,Selector,classificacao,Selection,negativa,1737636810548,negativa;neutra;positiva
1737637645,bc2584302fffead698e1809107a60040,PennController,31,0,frases,NULL,PennController,32,_Trial_,End,1737636810549,NULL
1737637645,bc2584302fffead698e1809107a60040,PennController,32,0,frases,NULL,PennController,33,_Trial_,Start,1737636810550,NULL
1737637645,bc2584302fffead698e1809107a60040,PennController,32,0,frases,NULL,Selector,classificacao,Selection,positiva,1737636813476,negativa;neutra;positiva
1737637645,bc2584302fffead698e1809107a60040,PennController,32,0,frases,NULL,PennController,33,_Trial_,End,1737636813476,NULL
1737637645,bc2584302fffead698e1809107a60040,PennController,33,0,frases,NULL,PennController,34,_Trial_,Start,1737636813477,NULL
1737637645,bc2584302fffead698e1809107a60040,PennController,33,0,frases,NULL,Selector,classificacao,Selection,positiva,1737636815394,negativa;neutra;positiva
1737637645,bc2584302fffead698e1809107a60040,PennController,33,0,frases,NULL,PennController,34,_Trial_,End,1737636815395,NULL
1737637645,bc2584302fffead698e1809107a60040,PennController,34,0,frases,NULL,PennController,35,_Trial_,Start,1737636815395,NULL
1737637645,bc2584302fffead698e1809107a60040,PennController,34,0,frases,NULL,Selector,classificacao,Selection,positiva,1737636818996,negativa;neutra;positiva
1737637645,bc2584302fffead698e1809107a60040,PennController,34,0,frases,NULL,PennController,35,_Trial_,End,1737636818997,NULL
1737637645,bc2584302fffead698e1809107a60040,PennController,35,0,frases,NULL,PennController,36,_Trial_,Start,1737636818998,NULL
1737637645,bc2584302fffead698e1809107a60040,PennController,35,0,frases,NULL,Selector,classificacao,Selection,negativa,1737636822588,negativa;neutra;positiva
1737637645,bc2584302fffead698e1809107a60040,PennController,35,0,frases,NULL,PennController,36,_Trial_,End,1737636822589,NULL
1737637645,bc2584302fffead698e1809107a60040,PennController,36,0,frases,NULL,PennController,37,_Trial_,Start,1737636822590,NULL
1737637645,bc2584302fffead698e1809107a60040,PennController,36,0,frases,NULL,Selector,classificacao,Selection,positiva,1737636824443,negativa;neutra;positiva
1737637645,bc2584302fffead698e1809107a60040,PennController,36,0,frases,NULL,PennController,37,_Trial_,End,1737636824443,NULL
1737637645,bc2584302fffead698e1809107a60040,PennController,37,0,frases,NULL,PennController,38,_Trial_,Start,1737636824444,NULL
1737637645,bc2584302fffead698e1809107a60040,PennController,37,0,frases,NULL,Selector,classificacao,Selection,neutra,1737636827939,negativa;neutra;positiva
1737637645,bc2584302fffead698e1809107a60040,PennController,37,0,frases,NULL,PennController,38,_Trial_,End,1737636827939,NULL
1737637645,bc2584302fffead698e1809107a60040,PennController,38,0,frases,NULL,PennController,39,_Trial_,Start,1737636827940,NULL
1737637645,bc2584302fffead698e1809107a60040,PennController,38,0,frases,NULL,Selector,classificacao,Selection,negativa,1737636831659,negativa;neutra;positiva
1737637645,bc2584302fffead698e1809107a60040,PennController,38,0,frases,NULL,PennController,39,_Trial_,End,1737636831660,NULL
1737637645,bc2584302fffead698e1809107a60040,PennController,39,0,frases,NULL,PennController,40,_Trial_,Start,1737636831661,NULL
1737637645,bc2584302fffead698e1809107a60040,PennController,39,0,frases,NULL,Selector,classificacao,Selection,negativa,1737636837058,negativa;neutra;positiva
1737637645,bc2584302fffead698e1809107a60040,PennController,39,0,frases,NULL,PennController,40,_Trial_,End,1737636837059,NULL
1737637645,bc2584302fffead698e1809107a60040,PennController,40,0,frases,NULL,PennController,41,_Trial_,Start,1737636837060,NULL
1737637645,bc2584302fffead698e1809107a60040,PennController,40,0,frases,NULL,Selector,classificacao,Selection,positiva,1737636838947,negativa;neutra;positiva
1737637645,bc2584302fffead698e1809107a60040,PennController,40,0,frases,NULL,PennController,41,_Trial_,End,1737636838948,NULL
1737637645,bc2584302fffead698e1809107a60040,PennController,41,0,frases,NULL,PennController,42,_Trial_,Start,1737636838948,NULL
1737637645,bc2584302fffead698e1809107a60040,PennController,41,0,frases,NULL,Selector,classificacao,Selection,positiva,1737636843954,negativa;neutra;positiva
1737637645,bc2584302fffead698e1809107a60040,PennController,41,0,frases,NULL,PennController,42,_Trial_,End,1737636843955,NULL
1737637645,bc2584302fffead698e1809107a60040,PennController,42,0,frases,NULL,PennController,43,_Trial_,Start,1737636843956,NULL
1737637645,bc2584302fffead698e1809107a60040,PennController,42,0,frases,NULL,Selector,classificacao,Selection,negativa,1737636849434,negativa;neutra;positiva
1737637645,bc2584302fffead698e1809107a60040,PennController,42,0,frases,NULL,PennController,43,_Trial_,End,1737636849435,NULL
1737637645,bc2584302fffead698e1809107a60040,PennController,43,0,frases,NULL,PennController,44,_Trial_,Start,1737636849436,NULL
1737637645,bc2584302fffead698e1809107a60040,PennController,43,0,frases,NULL,Selector,classificacao,Selection,neutra,1737636852506,negativa;neutra;positiva
1737637645,bc2584302fffead698e1809107a60040,PennController,43,0,frases,NULL,PennController,44,_Trial_,End,1737636852507,NULL
1737637645,bc2584302fffead698e1809107a60040,PennController,44,0,frases,NULL,PennController,45,_Trial_,Start,1737636852508,NULL
1737637645,bc2584302fffead698e1809107a60040,PennController,44,0,frases,NULL,Selector,classificacao,Selection,neutra,1737636857747,negativa;neutra;positiva
1737637645,bc2584302fffead698e1809107a60040,PennController,44,0,frases,NULL,PennController,45,_Trial_,End,1737636857747,NULL
1737637645,bc2584302fffead698e1809107a60040,PennController,45,0,frases,NULL,PennController,46,_Trial_,Start,1737636857748,NULL
1737637645,bc2584302fffead698e1809107a60040,PennController,45,0,frases,NULL,Selector,classificacao,Selection,negativa,1737636862741,negativa;neutra;positiva
1737637645,bc2584302fffead698e1809107a60040,PennController,45,0,frases,NULL,PennController,46,_Trial_,End,1737636862742,NULL
1737637645,bc2584302fffead698e1809107a60040,PennController,46,0,frases,NULL,PennController,47,_Trial_,Start,1737636862742,NULL
1737637645,bc2584302fffead698e1809107a60040,PennController,46,0,frases,NULL,Selector,classificacao,Selection,neutra,1737637018449,negativa;neutra;positiva
1737637645,bc2584302fffead698e1809107a60040,PennController,46,0,frases,NULL,PennController,47,_Trial_,End,1737637018449,NULL
1737637645,bc2584302fffead698e1809107a60040,PennController,47,0,frases,NULL,PennController,48,_Trial_,Start,1737637018450,NULL
1737637645,bc2584302fffead698e1809107a60040,PennController,47,0,frases,NULL,Selector,classificacao,Selection,positiva,1737637024426,negativa;neutra;positiva
1737637645,bc2584302fffead698e1809107a60040,PennController,47,0,frases,NULL,PennController,48,_Trial_,End,1737637024427,NULL
1737637645,bc2584302fffead698e1809107a60040,PennController,48,0,frases,NULL,PennController,49,_Trial_,Start,1737637024427,NULL
1737637645,bc2584302fffead698e1809107a60040,PennController,48,0,frases,NULL,Selector,classificacao,Selection,positiva,1737637027242,negativa;neutra;positiva
1737637645,bc2584302fffead698e1809107a60040,PennController,48,0,frases,NULL,PennController,49,_Trial_,End,1737637027243,NULL
1737637645,bc2584302fffead698e1809107a60040,PennController,49,0,frases,NULL,PennController,50,_Trial_,Start,1737637027243,NULL
1737637645,bc2584302fffead698e1809107a60040,PennController,49,0,frases,NULL,Selector,classificacao,Selection,negativa,1737637030139,negativa;neutra;positiva
1737637645,bc2584302fffead698e1809107a60040,PennController,49,0,frases,NULL,PennController,50,_Trial_,End,1737637030140,NULL
1737637645,bc2584302fffead698e1809107a60040,PennController,50,0,frases,NULL,PennController,51,_Trial_,Start,1737637030140,NULL
1737637645,bc2584302fffead698e1809107a60040,PennController,50,0,frases,NULL,Selector,classificacao,Selection,negativa,1737637033931,negativa;neutra;positiva
1737637645,bc2584302fffead698e1809107a60040,PennController,50,0,frases,NULL,PennController,51,_Trial_,End,1737637033932,NULL
1737637645,bc2584302fffead698e1809107a60040,PennController,51,0,frases,NULL,PennController,52,_Trial_,Start,1737637033932,NULL
1737637645,bc2584302fffead698e1809107a60040,PennController,51,0,frases,NULL,Selector,classificacao,Selection,neutra,1737637041386,negativa;neutra;positiva
1737637645,bc2584302fffead698e1809107a60040,PennController,51,0,frases,NULL,PennController,52,_Trial_,End,1737637041386,NULL
1737637645,bc2584302fffead698e1809107a60040,PennController,52,0,frases,NULL,PennController,53,_Trial_,Start,1737637041387,NULL
1737637645,bc2584302fffead698e1809107a60040,PennController,52,0,frases,NULL,Selector,classificacao,Selection,negativa,1737637044699,negativa;neutra;positiva
1737637645,bc2584302fffead698e1809107a60040,PennController,52,0,frases,NULL,PennController,53,_Trial_,End,1737637044699,NULL
1737637645,bc2584302fffead698e1809107a60040,PennController,53,0,frases,NULL,PennController,54,_Trial_,Start,1737637044699,NULL
1737637645,bc2584302fffead698e1809107a60040,PennController,53,0,frases,NULL,Selector,classificacao,Selection,neutra,1737637055186,negativa;neutra;positiva
1737637645,bc2584302fffead698e1809107a60040,PennController,53,0,frases,NULL,PennController,54,_Trial_,End,1737637055187,NULL
1737637645,bc2584302fffead698e1809107a60040,PennController,54,0,frases,NULL,PennController,55,_Trial_,Start,1737637055188,NULL
1737637645,bc2584302fffead698e1809107a60040,PennController,54,0,frases,NULL,Selector,classificacao,Selection,positiva,1737637057411,negativa;neutra;positiva
1737637645,bc2584302fffead698e1809107a60040,PennController,54,0,frases,NULL,PennController,55,_Trial_,End,1737637057412,NULL
1737637645,bc2584302fffead698e1809107a60040,PennController,55,0,frases,NULL,PennController,56,_Trial_,Start,1737637057412,NULL
1737637645,bc2584302fffead698e1809107a60040,PennController,55,0,frases,NULL,Selector,classificacao,Selection,positiva,1737637059706,negativa;neutra;positiva
1737637645,bc2584302fffead698e1809107a60040,PennController,55,0,frases,NULL,PennController,56,_Trial_,End,1737637059707,NULL
1737637645,bc2584302fffead698e1809107a60040,PennController,56,0,frases,NULL,PennController,57,_Trial_,Start,1737637059708,NULL
1737637645,bc2584302fffead698e1809107a60040,PennController,56,0,frases,NULL,Selector,classificacao,Selection,negativa,1737637235929,negativa;neutra;positiva
1737637645,bc2584302fffead698e1809107a60040,PennController,56,0,frases,NULL,PennController,57,_Trial_,End,1737637235930,NULL
1737637645,bc2584302fffead698e1809107a60040,PennController,57,0,frases,NULL,PennController,58,_Trial_,Start,1737637235931,NULL
1737637645,bc2584302fffead698e1809107a60040,PennController,57,0,frases,NULL,Selector,classificacao,Selection,negativa,1737637239945,negativa;neutra;positiva
1737637645,bc2584302fffead698e1809107a60040,PennController,57,0,frases,NULL,PennController,58,_Trial_,End,1737637239946,NULL
1737637645,bc2584302fffead698e1809107a60040,PennController,58,0,frases,NULL,PennController,59,_Trial_,Start,1737637239946,NULL
1737637645,bc2584302fffead698e1809107a60040,PennController,58,0,frases,NULL,Selector,classificacao,Selection,negativa,1737637242952,negativa;neutra;positiva
1737637645,bc2584302fffead698e1809107a60040,PennController,58,0,frases,NULL,PennController,59,_Trial_,End,1737637242952,NULL
1737637645,bc2584302fffead698e1809107a60040,PennController,59,0,frases,NULL,PennController,60,_Trial_,Start,1737637242953,NULL
1737637645,bc2584302fffead698e1809107a60040,PennController,59,0,frases,NULL,Selector,classificacao,Selection,positiva,1737637244641,negativa;neutra;positiva
1737637645,bc2584302fffead698e1809107a60040,PennController,59,0,frases,NULL,PennController,60,_Trial_,End,1737637244642,NULL
1737637645,bc2584302fffead698e1809107a60040,PennController,60,0,frases,NULL,PennController,61,_Trial_,Start,1737637244642,NULL
1737637645,bc2584302fffead698e1809107a60040,PennController,60,0,frases,NULL,Selector,classificacao,Selection,negativa,1737637250337,negativa;neutra;positiva
1737637645,bc2584302fffead698e1809107a60040,PennController,60,0,frases,NULL,PennController,61,_Trial_,End,1737637250338,NULL
1737637645,bc2584302fffead698e1809107a60040,PennController,61,0,frases,NULL,PennController,62,_Trial_,Start,1737637250338,NULL
1737637645,bc2584302fffead698e1809107a60040,PennController,61,0,frases,NULL,Selector,classificacao,Selection,neutra,1737637252457,negativa;neutra;positiva
1737637645,bc2584302fffead698e1809107a60040,PennController,61,0,frases,NULL,PennController,62,_Trial_,End,1737637252458,NULL
1737637645,bc2584302fffead698e1809107a60040,PennController,62,0,frases,NULL,PennController,63,_Trial_,Start,1737637252459,NULL
1737637645,bc2584302fffead698e1809107a60040,PennController,62,0,frases,NULL,Selector,classificacao,Selection,negativa,1737637259338,negativa;neutra;positiva
1737637645,bc2584302fffead698e1809107a60040,PennController,62,0,frases,NULL,PennController,63,_Trial_,End,1737637259338,NULL
1737637645,bc2584302fffead698e1809107a60040,PennController,63,0,frases,NULL,PennController,64,_Trial_,Start,1737637259339,NULL
1737637645,bc2584302fffead698e1809107a60040,PennController,63,0,frases,NULL,Selector,classificacao,Selection,positiva,1737637264840,negativa;neutra;positiva
1737637645,bc2584302fffead698e1809107a60040,PennController,63,0,frases,NULL,PennController,64,_Trial_,End,1737637264841,NULL
1737637645,bc2584302fffead698e1809107a60040,PennController,64,0,frases,NULL,PennController,65,_Trial_,Start,1737637264842,NULL
1737637645,bc2584302fffead698e1809107a60040,PennController,64,0,frases,NULL,Selector,classificacao,Selection,negativa,1737637271119,negativa;neutra;positiva
1737637645,bc2584302fffead698e1809107a60040,PennController,64,0,frases,NULL,PennController,65,_Trial_,End,1737637271120,NULL
1737637645,bc2584302fffead698e1809107a60040,PennController,65,0,frases,NULL,PennController,66,_Trial_,Start,1737637271121,NULL
1737637645,bc2584302fffead698e1809107a60040,PennController,65,0,frases,NULL,Selector,classificacao,Selection,positiva,1737637273144,negativa;neutra;positiva
1737637645,bc2584302fffead698e1809107a60040,PennController,65,0,frases,NULL,PennController,66,_Trial_,End,1737637273145,NULL
1737637645,bc2584302fffead698e1809107a60040,PennController,66,0,frases,NULL,PennController,67,_Trial_,Start,1737637273146,NULL
1737637645,bc2584302fffead698e1809107a60040,PennController,66,0,frases,NULL,Selector,classificacao,Selection,neutra,1737637278049,negativa;neutra;positiva
1737637645,bc2584302fffead698e1809107a60040,PennController,66,0,frases,NULL,PennController,67,_Trial_,End,1737637278050,NULL
1737637645,bc2584302fffead698e1809107a60040,PennController,67,0,frases,NULL,PennController,68,_Trial_,Start,1737637278050,NULL
1737637645,bc2584302fffead698e1809107a60040,PennController,67,0,frases,NULL,Selector,classificacao,Selection,negativa,1737637281496,negativa;neutra;positiva
1737637645,bc2584302fffead698e1809107a60040,PennController,67,0,frases,NULL,PennController,68,_Trial_,End,1737637281498,NULL
1737637645,bc2584302fffead698e1809107a60040,PennController,68,0,frases,NULL,PennController,69,_Trial_,Start,1737637281498,NULL
1737637645,bc2584302fffead698e1809107a60040,PennController,68,0,frases,NULL,Selector,classificacao,Selection,positiva,1737637285024,negativa;neutra;positiva
1737637645,bc2584302fffead698e1809107a60040,PennController,68,0,frases,NULL,PennController,69,_Trial_,End,1737637285024,NULL
1737637645,bc2584302fffead698e1809107a60040,PennController,69,0,frases,NULL,PennController,70,_Trial_,Start,1737637285025,NULL
1737637645,bc2584302fffead698e1809107a60040,PennController,69,0,frases,NULL,Selector,classificacao,Selection,negativa,1737637289201,negativa;neutra;positiva
1737637645,bc2584302fffead698e1809107a60040,PennController,69,0,frases,NULL,PennController,70,_Trial_,End,1737637289202,NULL
1737637645,bc2584302fffead698e1809107a60040,PennController,70,0,frases,NULL,PennController,71,_Trial_,Start,1737637289202,NULL
1737637645,bc2584302fffead698e1809107a60040,PennController,70,0,frases,NULL,Selector,classificacao,Selection,negativa,1737637294295,negativa;neutra;positiva
1737637645,bc2584302fffead698e1809107a60040,PennController,70,0,frases,NULL,PennController,71,_Trial_,End,1737637294295,NULL
1737637645,bc2584302fffead698e1809107a60040,PennController,71,0,frases,NULL,PennController,72,_Trial_,Start,1737637294296,NULL
1737637645,bc2584302fffead698e1809107a60040,PennController,71,0,frases,NULL,Selector,classificacao,Selection,neutra,1737637303776,negativa;neutra;positiva
1737637645,bc2584302fffead698e1809107a60040,PennController,71,0,frases,NULL,PennController,72,_Trial_,End,1737637303776,NULL
1737637645,bc2584302fffead698e1809107a60040,PennController,72,0,frases,NULL,PennController,73,_Trial_,Start,1737637303777,NULL
1737637645,bc2584302fffead698e1809107a60040,PennController,72,0,frases,NULL,Selector,classificacao,Selection,positiva,1737637307504,negativa;neutra;positiva
1737637645,bc2584302fffead698e1809107a60040,PennController,72,0,frases,NULL,PennController,73,_Trial_,End,1737637307505,NULL
1737637645,bc2584302fffead698e1809107a60040,PennController,73,0,frases,NULL,PennController,74,_Trial_,Start,1737637307506,NULL
1737637645,bc2584302fffead698e1809107a60040,PennController,73,0,frases,NULL,Selector,classificacao,Selection,negativa,1737637312296,negativa;neutra;positiva
1737637645,bc2584302fffead698e1809107a60040,PennController,73,0,frases,NULL,PennController,74,_Trial_,End,1737637312297,NULL
1737637645,bc2584302fffead698e1809107a60040,PennController,74,0,frases,NULL,PennController,75,_Trial_,Start,1737637312297,NULL
1737637645,bc2584302fffead698e1809107a60040,PennController,74,0,frases,NULL,Selector,classificacao,Selection,positiva,1737637317032,negativa;neutra;positiva
1737637645,bc2584302fffead698e1809107a60040,PennController,74,0,frases,NULL,PennController,75,_Trial_,End,1737637317033,NULL
1737637645,bc2584302fffead698e1809107a60040,PennController,75,0,frases,NULL,PennController,76,_Trial_,Start,1737637317033,NULL
1737637645,bc2584302fffead698e1809107a60040,PennController,75,0,frases,NULL,Selector,classificacao,Selection,positiva,1737637319111,negativa;neutra;positiva
1737637645,bc2584302fffead698e1809107a60040,PennController,75,0,frases,NULL,PennController,76,_Trial_,End,1737637319113,NULL
1737637645,bc2584302fffead698e1809107a60040,PennController,76,0,frases,NULL,PennController,77,_Trial_,Start,1737637319113,NULL
1737637645,bc2584302fffead698e1809107a60040,PennController,76,0,frases,NULL,Selector,classificacao,Selection,positiva,1737637322233,negativa;neutra;positiva
1737637645,bc2584302fffead698e1809107a60040,PennController,76,0,frases,NULL,PennController,77,_Trial_,End,1737637322234,NULL
1737637645,bc2584302fffead698e1809107a60040,PennController,77,0,frases,NULL,PennController,78,_Trial_,Start,1737637322234,NULL
1737637645,bc2584302fffead698e1809107a60040,PennController,77,0,frases,NULL,Selector,classificacao,Selection,negativa,1737637326047,negativa;neutra;positiva
1737637645,bc2584302fffead698e1809107a60040,PennController,77,0,frases,NULL,PennController,78,_Trial_,End,1737637326048,NULL
1737637645,bc2584302fffead698e1809107a60040,PennController,78,0,frases,NULL,PennController,79,_Trial_,Start,1737637326048,NULL
1737637645,bc2584302fffead698e1809107a60040,PennController,78,0,frases,NULL,Selector,classificacao,Selection,positiva,1737637328609,negativa;neutra;positiva
1737637645,bc2584302fffead698e1809107a60040,PennController,78,0,frases,NULL,PennController,79,_Trial_,End,1737637328609,NULL
1737637645,bc2584302fffead698e1809107a60040,PennController,79,0,frases,NULL,PennController,80,_Trial_,Start,1737637328609,NULL
1737637645,bc2584302fffead698e1809107a60040,PennController,79,0,frases,NULL,Selector,classificacao,Selection,positiva,1737637331936,negativa;neutra;positiva
1737637645,bc2584302fffead698e1809107a60040,PennController,79,0,frases,NULL,PennController,80,_Trial_,End,1737637331937,NULL
1737637645,bc2584302fffead698e1809107a60040,PennController,80,0,frases,NULL,PennController,81,_Trial_,Start,1737637331937,NULL
1737637645,bc2584302fffead698e1809107a60040,PennController,80,0,frases,NULL,Selector,classificacao,Selection,negativa,1737637336144,negativa;neutra;positiva
1737637645,bc2584302fffead698e1809107a60040,PennController,80,0,frases,NULL,PennController,81,_Trial_,End,1737637336144,NULL
1737637645,bc2584302fffead698e1809107a60040,PennController,81,0,frases,NULL,PennController,82,_Trial_,Start,1737637336145,NULL
1737637645,bc2584302fffead698e1809107a60040,PennController,81,0,frases,NULL,Selector,classificacao,Selection,positiva,1737637338392,negativa;neutra;positiva
1737637645,bc2584302fffead698e1809107a60040,PennController,81,0,frases,NULL,PennController,82,_Trial_,End,1737637338392,NULL
1737637645,bc2584302fffead698e1809107a60040,PennController,82,0,frases,NULL,PennController,83,_Trial_,Start,1737637338393,NULL
1737637645,bc2584302fffead698e1809107a60040,PennController,82,0,frases,NULL,Selector,classificacao,Selection,negativa,1737637340615,negativa;neutra;positiva
1737637645,bc2584302fffead698e1809107a60040,PennController,82,0,frases,NULL,PennController,83,_Trial_,End,1737637340616,NULL
1737637645,bc2584302fffead698e1809107a60040,PennController,83,0,frases,NULL,PennController,84,_Trial_,Start,1737637340617,NULL
1737637645,bc2584302fffead698e1809107a60040,PennController,83,0,frases,NULL,Selector,classificacao,Selection,negativa,1737637342439,negativa;neutra;positiva
1737637645,bc2584302fffead698e1809107a60040,PennController,83,0,frases,NULL,PennController,84,_Trial_,End,1737637342440,NULL
1737637645,bc2584302fffead698e1809107a60040,PennController,84,0,frases,NULL,PennController,85,_Trial_,Start,1737637342441,NULL
1737637645,bc2584302fffead698e1809107a60040,PennController,84,0,frases,NULL,Selector,classificacao,Selection,neutra,1737637344224,negativa;neutra;positiva
1737637645,bc2584302fffead698e1809107a60040,PennController,84,0,frases,NULL,PennController,85,_Trial_,End,1737637344224,NULL
1737637645,bc2584302fffead698e1809107a60040,PennController,85,0,frases,NULL,PennController,86,_Trial_,Start,1737637344225,NULL
1737637645,bc2584302fffead698e1809107a60040,PennController,85,0,frases,NULL,Selector,classificacao,Selection,positiva,1737637346687,negativa;neutra;positiva
1737637645,bc2584302fffead698e1809107a60040,PennController,85,0,frases,NULL,PennController,86,_Trial_,End,1737637346688,NULL
1737637645,bc2584302fffead698e1809107a60040,PennController,86,0,frases,NULL,PennController,87,_Trial_,Start,1737637346689,NULL
1737637645,bc2584302fffead698e1809107a60040,PennController,86,0,frases,NULL,Selector,classificacao,Selection,neutra,1737637355527,negativa;neutra;positiva
1737637645,bc2584302fffead698e1809107a60040,PennController,86,0,frases,NULL,PennController,87,_Trial_,End,1737637355527,NULL
1737637645,bc2584302fffead698e1809107a60040,PennController,87,0,frases,NULL,PennController,88,_Trial_,Start,1737637355528,NULL
1737637645,bc2584302fffead698e1809107a60040,PennController,87,0,frases,NULL,Selector,classificacao,Selection,neutra,1737637361175,negativa;neutra;positiva
1737637645,bc2584302fffead698e1809107a60040,PennController,87,0,frases,NULL,PennController,88,_Trial_,End,1737637361176,NULL
1737637645,bc2584302fffead698e1809107a60040,PennController,88,0,frases,NULL,PennController,89,_Trial_,Start,1737637361177,NULL
1737637645,bc2584302fffead698e1809107a60040,PennController,88,0,frases,NULL,Selector,classificacao,Selection,neutra,1737637364296,negativa;neutra;positiva
1737637645,bc2584302fffead698e1809107a60040,PennController,88,0,frases,NULL,PennController,89,_Trial_,End,1737637364297,NULL
1737637645,bc2584302fffead698e1809107a60040,PennController,89,0,frases,NULL,PennController,90,_Trial_,Start,1737637364297,NULL
1737637645,bc2584302fffead698e1809107a60040,PennController,89,0,frases,NULL,Selector,classificacao,Selection,positiva,1737637370007,negativa;neutra;positiva
1737637645,bc2584302fffead698e1809107a60040,PennController,89,0,frases,NULL,PennController,90,_Trial_,End,1737637370008,NULL
1737637645,bc2584302fffead698e1809107a60040,PennController,90,0,frases,NULL,PennController,91,_Trial_,Start,1737637370009,NULL
1737637645,bc2584302fffead698e1809107a60040,PennController,90,0,frases,NULL,Selector,classificacao,Selection,positiva,1737637373703,negativa;neutra;positiva
