#
# Results on Thu, 23 Jan 2025 17:48:29 GMT
# USER AGENT: Mozilla/5.0 (Windows NT 10.0; Win64; x64; rv:134.0) Gecko/20100101 Firefox/134.0
# Design number was non-random = 0
#
# Columns below this comment are as follows:
# 1. Results reception time.
# 2. MD5 hash of participant's IP address.
# 3. Controller name.
# 4. Order number of item.
# 5. Inner element number.
# 6. Label.
# 7. Latin Square Group.
# 8. PennElementType.
# 9. PennElementName.
# 10. Parameter.
# 11. Value.
# 12. EventTime.
# 13. Comments.
1737654509,bc2584302fffead698e1809107a60040,PennController,0,0,TCLE,NULL,PennController,0,_Trial_,Start,1737653986777,NULL
1737654509,bc2584302fffead698e1809107a60040,PennController,0,0,TCLE,NULL,PennController,0,_Trial_,End,1737653990271,NULL
1737654509,bc2584302fffead698e1809107a60040,PennController,3,0,instrucoes,NULL,PennController,3,_Trial_,Start,1737653990274,NULL
1737654509,bc2584302fffead698e1809107a60040,PennController,3,0,instrucoes,NULL,PennController,3,_Trial_,End,1737653991566,NULL
1737654509,bc2584302fffead698e1809107a60040,PennController,1,0,genero,NULL,PennController,1,_Trial_,Start,1737653991567,NULL
1737654509,bc2584302fffead698e1809107a60040,PennController,1,0,genero,NULL,DropDown,selecionaGenero,Selected,Masculino,1737653993085,0
1737654509,bc2584302fffead698e1809107a60040,PennController,1,0,genero,NULL,PennController,1,_Trial_,End,1737653994147,NULL
1737654509,bc2584302fffead698e1809107a60040,PennController,4,0,frases,NULL,PennController,5,_Trial_,Start,1737653994150,NULL
1737654509,bc2584302fffead698e1809107a60040,PennController,4,0,frases,NULL,Selector,classificacao,Selection,negativa,1737654067350,negativa;neutra;positiva
1737654509,bc2584302fffead698e1809107a60040,PennController,4,0,frases,NULL,PennController,5,_Trial_,End,1737654067352,NULL
1737654509,bc2584302fffead698e1809107a60040,PennController,5,0,frases,NULL,PennController,6,_Trial_,Start,1737654067354,NULL
1737654509,bc2584302fffead698e1809107a60040,PennController,5,0,frases,NULL,Selector,classificacao,Selection,negativa,1737654070293,negativa;neutra;positiva
1737654509,bc2584302fffead698e1809107a60040,PennController,5,0,frases,NULL,PennController,6,_Trial_,End,1737654070294,NULL
1737654509,bc2584302fffead698e1809107a60040,PennController,6,0,frases,NULL,PennController,7,_Trial_,Start,1737654070295,NULL
1737654509,bc2584302fffead698e1809107a60040,PennController,6,0,frases,NULL,Selector,classificacao,Selection,neutra,1737654071758,negativa;neutra;positiva
1737654509,bc2584302fffead698e1809107a60040,PennController,6,0,frases,NULL,PennController,7,_Trial_,End,1737654071759,NULL
1737654509,bc2584302fffead698e1809107a60040,PennController,7,0,frases,NULL,PennController,8,_Trial_,Start,1737654071760,NULL
1737654509,bc2584302fffead698e1809107a60040,PennController,7,0,frases,NULL,Selector,classificacao,Selection,positiva,1737654077342,negativa;neutra;positiva
1737654509,bc2584302fffead698e1809107a60040,PennController,7,0,frases,NULL,PennController,8,_Trial_,End,1737654077342,NULL
1737654509,bc2584302fffead698e1809107a60040,PennController,8,0,frases,NULL,PennController,9,_Trial_,Start,1737654077343,NULL
1737654509,bc2584302fffead698e1809107a60040,PennController,8,0,frases,NULL,Selector,classificacao,Selection,negativa,1737654081412,negativa;neutra;positiva
1737654509,bc2584302fffead698e1809107a60040,PennController,8,0,frases,NULL,PennController,9,_Trial_,End,1737654081413,NULL
1737654509,bc2584302fffead698e1809107a60040,PennController,9,0,frases,NULL,PennController,10,_Trial_,Start,1737654081414,NULL
1737654509,bc2584302fffead698e1809107a60040,PennController,9,0,frases,NULL,Selector,classificacao,Selection,negativa,1737654083110,negativa;neutra;positiva
1737654509,bc2584302fffead698e1809107a60040,PennController,9,0,frases,NULL,PennController,10,_Trial_,End,1737654083111,NULL
1737654509,bc2584302fffead698e1809107a60040,PennController,10,0,frases,NULL,PennController,11,_Trial_,Start,1737654083112,NULL
1737654509,bc2584302fffead698e1809107a60040,PennController,10,0,frases,NULL,Selector,classificacao,Selection,negativa,1737654084348,negativa;neutra;positiva
1737654509,bc2584302fffead698e1809107a60040,PennController,10,0,frases,NULL,PennController,11,_Trial_,End,1737654084349,NULL
1737654509,bc2584302fffead698e1809107a60040,PennController,11,0,frases,NULL,PennController,12,_Trial_,Start,1737654084351,NULL
1737654509,bc2584302fffead698e1809107a60040,PennController,11,0,frases,NULL,Selector,classificacao,Selection,positiva,1737654086103,negativa;neutra;positiva
1737654509,bc2584302fffead698e1809107a60040,PennController,11,0,frases,NULL,PennController,12,_Trial_,End,1737654086104,NULL
1737654509,bc2584302fffead698e1809107a60040,PennController,12,0,frases,NULL,PennController,13,_Trial_,Start,1737654086105,NULL
1737654509,bc2584302fffead698e1809107a60040,PennController,12,0,frases,NULL,Selector,classificacao,Selection,negativa,1737654088964,negativa;neutra;positiva
1737654509,bc2584302fffead698e1809107a60040,PennController,12,0,frases,NULL,PennController,13,_Trial_,End,1737654088965,NULL
1737654509,bc2584302fffead698e1809107a60040,PennController,13,0,frases,NULL,PennController,14,_Trial_,Start,1737654088966,NULL
1737654509,bc2584302fffead698e1809107a60040,PennController,13,0,frases,NULL,Selector,classificacao,Selection,negativa,1737654094876,negativa;neutra;positiva
1737654509,bc2584302fffead698e1809107a60040,PennController,13,0,frases,NULL,PennController,14,_Trial_,End,1737654094877,NULL
1737654509,bc2584302fffead698e1809107a60040,PennController,14,0,frases,NULL,PennController,15,_Trial_,Start,1737654094878,NULL
1737654509,bc2584302fffead698e1809107a60040,PennController,14,0,frases,NULL,Selector,classificacao,Selection,positiva,1737654097742,negativa;neutra;positiva
1737654509,bc2584302fffead698e1809107a60040,PennController,14,0,frases,NULL,PennController,15,_Trial_,End,1737654097743,NULL
1737654509,bc2584302fffead698e1809107a60040,PennController,15,0,frases,NULL,PennController,16,_Trial_,Start,1737654097743,NULL
1737654509,bc2584302fffead698e1809107a60040,PennController,15,0,frases,NULL,Selector,classificacao,Selection,negativa,1737654101230,negativa;neutra;positiva
1737654509,bc2584302fffead698e1809107a60040,PennController,15,0,frases,NULL,PennController,16,_Trial_,End,1737654101231,NULL
1737654509,bc2584302fffead698e1809107a60040,PennController,16,0,frases,NULL,PennController,17,_Trial_,Start,1737654101232,NULL
1737654509,bc2584302fffead698e1809107a60040,PennController,16,0,frases,NULL,Selector,classificacao,Selection,negativa,1737654104118,negativa;neutra;positiva
1737654509,bc2584302fffead698e1809107a60040,PennController,16,0,frases,NULL,PennController,17,_Trial_,End,1737654104118,NULL
1737654509,bc2584302fffead698e1809107a60040,PennController,17,0,frases,NULL,PennController,18,_Trial_,Start,1737654104119,NULL
1737654509,bc2584302fffead698e1809107a60040,PennController,17,0,frases,NULL,Selector,classificacao,Selection,positiva,1737654106629,negativa;neutra;positiva
1737654509,bc2584302fffead698e1809107a60040,PennController,17,0,frases,NULL,PennController,18,_Trial_,End,1737654106630,NULL
1737654509,bc2584302fffead698e1809107a60040,PennController,18,0,frases,NULL,PennController,19,_Trial_,Start,1737654106631,NULL
1737654509,bc2584302fffead698e1809107a60040,PennController,18,0,frases,NULL,Selector,classificacao,Selection,neutra,1737654121094,negativa;neutra;positiva
1737654509,bc2584302fffead698e1809107a60040,PennController,18,0,frases,NULL,PennController,19,_Trial_,End,1737654121094,NULL
1737654509,bc2584302fffead698e1809107a60040,PennController,19,0,frases,NULL,PennController,20,_Trial_,Start,1737654121095,NULL
1737654509,bc2584302fffead698e1809107a60040,PennController,19,0,frases,NULL,Selector,classificacao,Selection,positiva,1737654123958,negativa;neutra;positiva
1737654509,bc2584302fffead698e1809107a60040,PennController,19,0,frases,NULL,PennController,20,_Trial_,End,1737654123959,NULL
1737654509,bc2584302fffead698e1809107a60040,PennController,20,0,frases,NULL,PennController,21,_Trial_,Start,1737654123959,NULL
1737654509,bc2584302fffead698e1809107a60040,PennController,20,0,frases,NULL,Selector,classificacao,Selection,negativa,1737654127494,negativa;neutra;positiva
1737654509,bc2584302fffead698e1809107a60040,PennController,20,0,frases,NULL,PennController,21,_Trial_,End,1737654127494,NULL
1737654509,bc2584302fffead698e1809107a60040,PennController,21,0,frases,NULL,PennController,22,_Trial_,Start,1737654127495,NULL
1737654509,bc2584302fffead698e1809107a60040,PennController,21,0,frases,NULL,Selector,classificacao,Selection,negativa,1737654133509,negativa;neutra;positiva
1737654509,bc2584302fffead698e1809107a60040,PennController,21,0,frases,NULL,PennController,22,_Trial_,End,1737654133510,NULL
1737654509,bc2584302fffead698e1809107a60040,PennController,22,0,frases,NULL,PennController,23,_Trial_,Start,1737654133510,NULL
1737654509,bc2584302fffead698e1809107a60040,PennController,22,0,frases,NULL,Selector,classificacao,Selection,positiva,1737654138814,negativa;neutra;positiva
1737654509,bc2584302fffead698e1809107a60040,PennController,22,0,frases,NULL,PennController,23,_Trial_,End,1737654138814,NULL
1737654509,bc2584302fffead698e1809107a60040,PennController,23,0,frases,NULL,PennController,24,_Trial_,Start,1737654138815,NULL
1737654509,bc2584302fffead698e1809107a60040,PennController,23,0,frases,NULL,Selector,classificacao,Selection,negativa,1737654141934,negativa;neutra;positiva
1737654509,bc2584302fffead698e1809107a60040,PennController,23,0,frases,NULL,PennController,24,_Trial_,End,1737654141934,NULL
1737654509,bc2584302fffead698e1809107a60040,PennController,24,0,frases,NULL,PennController,25,_Trial_,Start,1737654141934,NULL
1737654509,bc2584302fffead698e1809107a60040,PennController,24,0,frases,NULL,Selector,classificacao,Selection,positiva,1737654146623,negativa;neutra;positiva
1737654509,bc2584302fffead698e1809107a60040,PennController,24,0,frases,NULL,PennController,25,_Trial_,End,1737654146623,NULL
1737654509,bc2584302fffead698e1809107a60040,PennController,25,0,frases,NULL,PennController,26,_Trial_,Start,1737654146624,NULL
1737654509,bc2584302fffead698e1809107a60040,PennController,25,0,frases,NULL,Selector,classificacao,Selection,negativa,1737654150685,negativa;neutra;positiva
1737654509,bc2584302fffead698e1809107a60040,PennController,25,0,frases,NULL,PennController,26,_Trial_,End,1737654150685,NULL
1737654509,bc2584302fffead698e1809107a60040,PennController,26,0,frases,NULL,PennController,27,_Trial_,Start,1737654150685,NULL
1737654509,bc2584302fffead698e1809107a60040,PennController,26,0,frases,NULL,Selector,classificacao,Selection,neutra,1737654156237,negativa;neutra;positiva
1737654509,bc2584302fffead698e1809107a60040,PennController,26,0,frases,NULL,PennController,27,_Trial_,End,1737654156238,NULL
1737654509,bc2584302fffead698e1809107a60040,PennController,27,0,frases,NULL,PennController,28,_Trial_,Start,1737654156239,NULL
1737654509,bc2584302fffead698e1809107a60040,PennController,27,0,frases,NULL,Selector,classificacao,Selection,negativa,1737654159702,negativa;neutra;positiva
1737654509,bc2584302fffead698e1809107a60040,PennController,27,0,frases,NULL,PennController,28,_Trial_,End,1737654159703,NULL
1737654509,bc2584302fffead698e1809107a60040,PennController,28,0,frases,NULL,PennController,29,_Trial_,Start,1737654159703,NULL
1737654509,bc2584302fffead698e1809107a60040,PennController,28,0,frases,NULL,Selector,classificacao,Selection,neutra,1737654164717,negativa;neutra;positiva
1737654509,bc2584302fffead698e1809107a60040,PennController,28,0,frases,NULL,PennController,29,_Trial_,End,1737654164717,NULL
1737654509,bc2584302fffead698e1809107a60040,PennController,29,0,frases,NULL,PennController,30,_Trial_,Start,1737654164718,NULL
1737654509,bc2584302fffead698e1809107a60040,PennController,29,0,frases,NULL,Selector,classificacao,Selection,positiva,1737654169005,negativa;neutra;positiva
1737654509,bc2584302fffead698e1809107a60040,PennController,29,0,frases,NULL,PennController,30,_Trial_,End,1737654169006,NULL
1737654509,bc2584302fffead698e1809107a60040,PennController,30,0,frases,NULL,PennController,31,_Trial_,Start,1737654169006,NULL
1737654509,bc2584302fffead698e1809107a60040,PennController,30,0,frases,NULL,Selector,classificacao,Selection,negativa,1737654172517,negativa;neutra;positiva
1737654509,bc2584302fffead698e1809107a60040,PennController,30,0,frases,NULL,PennController,31,_Trial_,End,1737654172517,NULL
1737654509,bc2584302fffead698e1809107a60040,PennController,31,0,frases,NULL,PennController,32,_Trial_,Start,1737654172519,NULL
1737654509,bc2584302fffead698e1809107a60040,PennController,31,0,frases,NULL,Selector,classificacao,Selection,neutra,1737654175804,negativa;neutra;positiva
1737654509,bc2584302fffead698e1809107a60040,PennController,31,0,frases,NULL,PennController,32,_Trial_,End,1737654175805,NULL
1737654509,bc2584302fffead698e1809107a60040,PennController,32,0,frases,NULL,PennController,33,_Trial_,Start,1737654175805,NULL
1737654509,bc2584302fffead698e1809107a60040,PennController,32,0,frases,NULL,Selector,classificacao,Selection,negativa,1737654179157,negativa;neutra;positiva
1737654509,bc2584302fffead698e1809107a60040,PennController,32,0,frases,NULL,PennController,33,_Trial_,End,1737654179158,NULL
1737654509,bc2584302fffead698e1809107a60040,PennController,33,0,frases,NULL,PennController,34,_Trial_,Start,1737654179158,NULL
1737654509,bc2584302fffead698e1809107a60040,PennController,33,0,frases,NULL,Selector,classificacao,Selection,positiva,1737654180828,negativa;neutra;positiva
1737654509,bc2584302fffead698e1809107a60040,PennController,33,0,frases,NULL,PennController,34,_Trial_,End,1737654180829,NULL
1737654509,bc2584302fffead698e1809107a60040,PennController,34,0,frases,NULL,PennController,35,_Trial_,Start,1737654180830,NULL
1737654509,bc2584302fffead698e1809107a60040,PennController,34,0,frases,NULL,Selector,classificacao,Selection,neutra,1737654183918,negativa;neutra;positiva
1737654509,bc2584302fffead698e1809107a60040,PennController,34,0,frases,NULL,PennController,35,_Trial_,End,1737654183918,NULL
1737654509,bc2584302fffead698e1809107a60040,PennController,35,0,frases,NULL,PennController,36,_Trial_,Start,1737654183919,NULL
1737654509,bc2584302fffead698e1809107a60040,PennController,35,0,frases,NULL,Selector,classificacao,Selection,positiva,1737654189710,negativa;neutra;positiva
1737654509,bc2584302fffead698e1809107a60040,PennController,35,0,frases,NULL,PennController,36,_Trial_,End,1737654189710,NULL
1737654509,bc2584302fffead698e1809107a60040,PennController,36,0,frases,NULL,PennController,37,_Trial_,Start,1737654189711,NULL
1737654509,bc2584302fffead698e1809107a60040,PennController,36,0,frases,NULL,Selector,classificacao,Selection,neutra,1737654196262,negativa;neutra;positiva
1737654509,bc2584302fffead698e1809107a60040,PennController,36,0,frases,NULL,PennController,37,_Trial_,End,1737654196262,NULL
1737654509,bc2584302fffead698e1809107a60040,PennController,37,0,frases,NULL,PennController,38,_Trial_,Start,1737654196263,NULL
1737654509,bc2584302fffead698e1809107a60040,PennController,37,0,frases,NULL,Selector,classificacao,Selection,negativa,1737654198893,negativa;neutra;positiva
1737654509,bc2584302fffead698e1809107a60040,PennController,37,0,frases,NULL,PennController,38,_Trial_,End,1737654198894,NULL
1737654509,bc2584302fffead698e1809107a60040,PennController,38,0,frases,NULL,PennController,39,_Trial_,Start,1737654198895,NULL
1737654509,bc2584302fffead698e1809107a60040,PennController,38,0,frases,NULL,Selector,classificacao,Selection,neutra,1737654203093,negativa;neutra;positiva
1737654509,bc2584302fffead698e1809107a60040,PennController,38,0,frases,NULL,PennController,39,_Trial_,End,1737654203094,NULL
1737654509,bc2584302fffead698e1809107a60040,PennController,39,0,frases,NULL,PennController,40,_Trial_,Start,1737654203094,NULL
1737654509,bc2584302fffead698e1809107a60040,PennController,39,0,frases,NULL,Selector,classificacao,Selection,positiva,1737654206677,negativa;neutra;positiva
1737654509,bc2584302fffead698e1809107a60040,PennController,39,0,frases,NULL,PennController,40,_Trial_,End,1737654206678,NULL
1737654509,bc2584302fffead698e1809107a60040,PennController,40,0,frases,NULL,PennController,41,_Trial_,Start,1737654206678,NULL
1737654509,bc2584302fffead698e1809107a60040,PennController,40,0,frases,NULL,Selector,classificacao,Selection,neutra,1737654210693,negativa;neutra;positiva
1737654509,bc2584302fffead698e1809107a60040,PennController,40,0,frases,NULL,PennController,41,_Trial_,End,1737654210694,NULL
1737654509,bc2584302fffead698e1809107a60040,PennController,41,0,frases,NULL,PennController,42,_Trial_,Start,1737654210694,NULL
1737654509,bc2584302fffead698e1809107a60040,PennController,41,0,frases,NULL,Selector,classificacao,Selection,positiva,1737654215085,negativa;neutra;positiva
1737654509,bc2584302fffead698e1809107a60040,PennController,41,0,frases,NULL,PennController,42,_Trial_,End,1737654215085,NULL
1737654509,bc2584302fffead698e1809107a60040,PennController,42,0,frases,NULL,PennController,43,_Trial_,Start,1737654215086,NULL
1737654509,bc2584302fffead698e1809107a60040,PennController,42,0,frases,NULL,Selector,classificacao,Selection,negativa,1737654219349,negativa;neutra;positiva
1737654509,bc2584302fffead698e1809107a60040,PennController,42,0,frases,NULL,PennController,43,_Trial_,End,1737654219350,NULL
1737654509,bc2584302fffead698e1809107a60040,PennController,43,0,frases,NULL,PennController,44,_Trial_,Start,1737654219350,NULL
1737654509,bc2584302fffead698e1809107a60040,PennController,43,0,frases,NULL,Selector,classificacao,Selection,positiva,1737654222774,negativa;neutra;positiva
1737654509,bc2584302fffead698e1809107a60040,PennController,43,0,frases,NULL,PennController,44,_Trial_,End,1737654222774,NULL
1737654509,bc2584302fffead698e1809107a60040,PennController,44,0,frases,NULL,PennController,45,_Trial_,Start,1737654222775,NULL
1737654509,bc2584302fffead698e1809107a60040,PennController,44,0,frases,NULL,Selector,classificacao,Selection,negativa,1737654224446,negativa;neutra;positiva
1737654509,bc2584302fffead698e1809107a60040,PennController,44,0,frases,NULL,PennController,45,_Trial_,End,1737654224446,NULL
1737654509,bc2584302fffead698e1809107a60040,PennController,45,0,frases,NULL,PennController,46,_Trial_,Start,1737654224447,NULL
1737654509,bc2584302fffead698e1809107a60040,PennController,45,0,frases,NULL,Selector,classificacao,Selection,positiva,1737654229462,negativa;neutra;positiva
1737654509,bc2584302fffead698e1809107a60040,PennController,45,0,frases,NULL,PennController,46,_Trial_,End,1737654229463,NULL
1737654509,bc2584302fffead698e1809107a60040,PennController,46,0,frases,NULL,PennController,47,_Trial_,Start,1737654229463,NULL
1737654509,bc2584302fffead698e1809107a60040,PennController,46,0,frases,NULL,Selector,classificacao,Selection,positiva,1737654232013,negativa;neutra;positiva
1737654509,bc2584302fffead698e1809107a60040,PennController,46,0,frases,NULL,PennController,47,_Trial_,End,1737654232014,NULL
1737654509,bc2584302fffead698e1809107a60040,PennController,47,0,frases,NULL,PennController,48,_Trial_,Start,1737654232014,NULL
1737654509,bc2584302fffead698e1809107a60040,PennController,47,0,frases,NULL,Selector,classificacao,Selection,positiva,1737654234781,negativa;neutra;positiva
1737654509,bc2584302fffead698e1809107a60040,PennController,47,0,frases,NULL,PennController,48,_Trial_,End,1737654234781,NULL
1737654509,bc2584302fffead698e1809107a60040,PennController,48,0,frases,NULL,PennController,49,_Trial_,Start,1737654234782,NULL
1737654509,bc2584302fffead698e1809107a60040,PennController,48,0,frases,NULL,Selector,classificacao,Selection,positiva,1737654237485,negativa;neutra;positiva
1737654509,bc2584302fffead698e1809107a60040,PennController,48,0,frases,NULL,PennController,49,_Trial_,End,1737654237486,NULL
1737654509,bc2584302fffead698e1809107a60040,PennController,49,0,frases,NULL,PennController,50,_Trial_,Start,1737654237486,NULL
1737654509,bc2584302fffead698e1809107a60040,PennController,49,0,frases,NULL,Selector,classificacao,Selection,negativa,1737654240922,negativa;neutra;positiva
1737654509,bc2584302fffead698e1809107a60040,PennController,49,0,frases,NULL,PennController,50,_Trial_,End,1737654240923,NULL
1737654509,bc2584302fffead698e1809107a60040,PennController,50,0,frases,NULL,PennController,51,_Trial_,Start,1737654240923,NULL
1737654509,bc2584302fffead698e1809107a60040,PennController,50,0,frases,NULL,Selector,classificacao,Selection,negativa,1737654244156,negativa;neutra;positiva
1737654509,bc2584302fffead698e1809107a60040,PennController,50,0,frases,NULL,PennController,51,_Trial_,End,1737654244156,NULL
1737654509,bc2584302fffead698e1809107a60040,PennController,51,0,frases,NULL,PennController,52,_Trial_,Start,1737654244157,NULL
1737654509,bc2584302fffead698e1809107a60040,PennController,51,0,frases,NULL,Selector,classificacao,Selection,negativa,1737654247565,negativa;neutra;positiva
1737654509,bc2584302fffead698e1809107a60040,PennController,51,0,frases,NULL,PennController,52,_Trial_,End,1737654247565,NULL
1737654509,bc2584302fffead698e1809107a60040,PennController,52,0,frases,NULL,PennController,53,_Trial_,Start,1737654247566,NULL
1737654509,bc2584302fffead698e1809107a60040,PennController,52,0,frases,NULL,Selector,classificacao,Selection,negativa,1737654256931,negativa;neutra;positiva
1737654509,bc2584302fffead698e1809107a60040,PennController,52,0,frases,NULL,PennController,53,_Trial_,End,1737654256932,NULL
1737654509,bc2584302fffead698e1809107a60040,PennController,53,0,frases,NULL,PennController,54,_Trial_,Start,1737654256933,NULL
1737654509,bc2584302fffead698e1809107a60040,PennController,53,0,frases,NULL,Selector,classificacao,Selection,positiva,1737654262462,negativa;neutra;positiva
1737654509,bc2584302fffead698e1809107a60040,PennController,53,0,frases,NULL,PennController,54,_Trial_,End,1737654262463,NULL
1737654509,bc2584302fffead698e1809107a60040,PennController,54,0,frases,NULL,PennController,55,_Trial_,Start,1737654262463,NULL
1737654509,bc2584302fffead698e1809107a60040,PennController,54,0,frases,NULL,Selector,classificacao,Selection,negativa,1737654266612,negativa;neutra;positiva
1737654509,bc2584302fffead698e1809107a60040,PennController,54,0,frases,NULL,PennController,55,_Trial_,End,1737654266613,NULL
1737654509,bc2584302fffead698e1809107a60040,PennController,55,0,frases,NULL,PennController,56,_Trial_,Start,1737654266613,NULL
1737654509,bc2584302fffead698e1809107a60040,PennController,55,0,frases,NULL,Selector,classificacao,Selection,positiva,1737654267990,negativa;neutra;positiva
1737654509,bc2584302fffead698e1809107a60040,PennController,55,0,frases,NULL,PennController,56,_Trial_,End,1737654267991,NULL
1737654509,bc2584302fffead698e1809107a60040,PennController,56,0,frases,NULL,PennController,57,_Trial_,Start,1737654267991,NULL
1737654509,bc2584302fffead698e1809107a60040,PennController,56,0,frases,NULL,Selector,classificacao,Selection,positiva,1737654272814,negativa;neutra;positiva
1737654509,bc2584302fffead698e1809107a60040,PennController,56,0,frases,NULL,PennController,57,_Trial_,End,1737654272815,NULL
1737654509,bc2584302fffead698e1809107a60040,PennController,57,0,frases,NULL,PennController,58,_Trial_,Start,1737654272815,NULL
1737654509,bc2584302fffead698e1809107a60040,PennController,57,0,frases,NULL,Selector,classificacao,Selection,positiva,1737654276333,negativa;neutra;positiva
1737654509,bc2584302fffead698e1809107a60040,PennController,57,0,frases,NULL,PennController,58,_Trial_,End,1737654276333,NULL
1737654509,bc2584302fffead698e1809107a60040,PennController,58,0,frases,NULL,PennController,59,_Trial_,Start,1737654276334,NULL
1737654509,bc2584302fffead698e1809107a60040,PennController,58,0,frases,NULL,Selector,classificacao,Selection,positiva,1737654279565,negativa;neutra;positiva
1737654509,bc2584302fffead698e1809107a60040,PennController,58,0,frases,NULL,PennController,59,_Trial_,End,1737654279566,NULL
1737654509,bc2584302fffead698e1809107a60040,PennController,59,0,frases,NULL,PennController,60,_Trial_,Start,1737654279567,NULL
1737654509,bc2584302fffead698e1809107a60040,PennController,59,0,frases,NULL,Selector,classificacao,Selection,positiva,1737654281877,negativa;neutra;positiva
1737654509,bc2584302fffead698e1809107a60040,PennController,59,0,frases,NULL,PennController,60,_Trial_,End,1737654281878,NULL
1737654509,bc2584302fffead698e1809107a60040,PennController,60,0,frases,NULL,PennController,61,_Trial_,Start,1737654281878,NULL
1737654509,bc2584302fffead698e1809107a60040,PennController,60,0,frases,NULL,Selector,classificacao,Selection,negativa,1737654284676,negativa;neutra;positiva
1737654509,bc2584302fffead698e1809107a60040,PennController,60,0,frases,NULL,PennController,61,_Trial_,End,1737654284677,NULL
1737654509,bc2584302fffead698e1809107a60040,PennController,61,0,frases,NULL,PennController,62,_Trial_,Start,1737654284678,NULL
1737654509,bc2584302fffead698e1809107a60040,PennController,61,0,frases,NULL,Selector,classificacao,Selection,negativa,1737654286820,negativa;neutra;positiva
1737654509,bc2584302fffead698e1809107a60040,PennController,61,0,frases,NULL,PennController,62,_Trial_,End,1737654286821,NULL
1737654509,bc2584302fffead698e1809107a60040,PennController,62,0,frases,NULL,PennController,63,_Trial_,Start,1737654286822,NULL
1737654509,bc2584302fffead698e1809107a60040,PennController,62,0,frases,NULL,Selector,classificacao,Selection,neutra,1737654292029,negativa;neutra;positiva
1737654509,bc2584302fffead698e1809107a60040,PennController,62,0,frases,NULL,PennController,63,_Trial_,End,1737654292029,NULL
1737654509,bc2584302fffead698e1809107a60040,PennController,63,0,frases,NULL,PennController,64,_Trial_,Start,1737654292030,NULL
1737654509,bc2584302fffead698e1809107a60040,PennController,63,0,frases,NULL,Selector,classificacao,Selection,negativa,1737654294557,negativa;neutra;positiva
1737654509,bc2584302fffead698e1809107a60040,PennController,63,0,frases,NULL,PennController,64,_Trial_,End,1737654294558,NULL
1737654509,bc2584302fffead698e1809107a60040,PennController,64,0,frases,NULL,PennController,65,_Trial_,Start,1737654294559,NULL
1737654509,bc2584302fffead698e1809107a60040,PennController,64,0,frases,NULL,Selector,classificacao,Selection,negativa,1737654296280,negativa;neutra;positiva
1737654509,bc2584302fffead698e1809107a60040,PennController,64,0,frases,NULL,PennController,65,_Trial_,End,1737654296280,NULL
1737654509,bc2584302fffead698e1809107a60040,PennController,65,0,frases,NULL,PennController,66,_Trial_,Start,1737654296281,NULL
1737654509,bc2584302fffead698e1809107a60040,PennController,65,0,frases,NULL,Selector,classificacao,Selection,negativa,1737654299388,negativa;neutra;positiva
1737654509,bc2584302fffead698e1809107a60040,PennController,65,0,frases,NULL,PennController,66,_Trial_,End,1737654299389,NULL
1737654509,bc2584302fffead698e1809107a60040,PennController,66,0,frases,NULL,PennController,67,_Trial_,Start,1737654299389,NULL
1737654509,bc2584302fffead698e1809107a60040,PennController,66,0,frases,NULL,Selector,classificacao,Selection,negativa,1737654302116,negativa;neutra;positiva
1737654509,bc2584302fffead698e1809107a60040,PennController,66,0,frases,NULL,PennController,67,_Trial_,End,1737654302117,NULL
1737654509,bc2584302fffead698e1809107a60040,PennController,67,0,frases,NULL,PennController,68,_Trial_,Start,1737654302118,NULL
1737654509,bc2584302fffead698e1809107a60040,PennController,67,0,frases,NULL,Selector,classificacao,Selection,positiva,1737654313308,negativa;neutra;positiva
1737654509,bc2584302fffead698e1809107a60040,PennController,67,0,frases,NULL,PennController,68,_Trial_,End,1737654313309,NULL
1737654509,bc2584302fffead698e1809107a60040,PennController,68,0,frases,NULL,PennController,69,_Trial_,Start,1737654313309,NULL
1737654509,bc2584302fffead698e1809107a60040,PennController,68,0,frases,NULL,Selector,classificacao,Selection,negativa,1737654316294,negativa;neutra;positiva
1737654509,bc2584302fffead698e1809107a60040,PennController,68,0,frases,NULL,PennController,69,_Trial_,End,1737654316294,NULL
1737654509,bc2584302fffead698e1809107a60040,PennController,69,0,frases,NULL,PennController,70,_Trial_,Start,1737654316295,NULL
1737654509,bc2584302fffead698e1809107a60040,PennController,69,0,frases,NULL,Selector,classificacao,Selection,positiva,1737654321397,negativa;neutra;positiva
1737654509,bc2584302fffead698e1809107a60040,PennController,69,0,frases,NULL,PennController,70,_Trial_,End,1737654321397,NULL
1737654509,bc2584302fffead698e1809107a60040,PennController,70,0,frases,NULL,PennController,71,_Trial_,Start,1737654321399,NULL
1737654509,bc2584302fffead698e1809107a60040,PennController,70,0,frases,NULL,Selector,classificacao,Selection,negativa,1737654323389,negativa;neutra;positiva
1737654509,bc2584302fffead698e1809107a60040,PennController,70,0,frases,NULL,PennController,71,_Trial_,End,1737654323390,NULL
1737654509,bc2584302fffead698e1809107a60040,PennController,71,0,frases,NULL,PennController,72,_Trial_,Start,1737654323391,NULL
1737654509,bc2584302fffead698e1809107a60040,PennController,71,0,frases,NULL,Selector,classificacao,Selection,neutra,1737654325717,negativa;neutra;positiva
1737654509,bc2584302fffead698e1809107a60040,PennController,71,0,frases,NULL,PennController,72,_Trial_,End,1737654325718,NULL
1737654509,bc2584302fffead698e1809107a60040,PennController,72,0,frases,NULL,PennController,73,_Trial_,Start,1737654325718,NULL
1737654509,bc2584302fffead698e1809107a60040,PennController,72,0,frases,NULL,Selector,classificacao,Selection,positiva,1737654327244,negativa;neutra;positiva
1737654509,bc2584302fffead698e1809107a60040,PennController,72,0,frases,NULL,PennController,73,_Trial_,End,1737654327245,NULL
1737654509,bc2584302fffead698e1809107a60040,PennController,73,0,frases,NULL,PennController,74,_Trial_,Start,1737654327246,NULL
1737654509,bc2584302fffead698e1809107a60040,PennController,73,0,frases,NULL,Selector,classificacao,Selection,negativa,1737654361309,negativa;neutra;positiva
1737654509,bc2584302fffead698e1809107a60040,PennController,73,0,frases,NULL,PennController,74,_Trial_,End,1737654361310,NULL
1737654509,bc2584302fffead698e1809107a60040,PennController,74,0,frases,NULL,PennController,75,_Trial_,Start,1737654361310,NULL
1737654509,bc2584302fffead698e1809107a60040,PennController,74,0,frases,NULL,Selector,classificacao,Selection,negativa,1737654371739,negativa;neutra;positiva
1737654509,bc2584302fffead698e1809107a60040,PennController,74,0,frases,NULL,PennController,75,_Trial_,End,1737654371740,NULL
1737654509,bc2584302fffead698e1809107a60040,PennController,75,0,frases,NULL,PennController,76,_Trial_,Start,1737654371741,NULL
1737654509,bc2584302fffead698e1809107a60040,PennController,75,0,frases,NULL,Selector,classificacao,Selection,neutra,1737654375364,negativa;neutra;positiva
1737654509,bc2584302fffead698e1809107a60040,PennController,75,0,frases,NULL,PennController,76,_Trial_,End,1737654375365,NULL
1737654509,bc2584302fffead698e1809107a60040,PennController,76,0,frases,NULL,PennController,77,_Trial_,Start,1737654375366,NULL
1737654509,bc2584302fffead698e1809107a60040,PennController,76,0,frases,NULL,Selector,classificacao,Selection,neutra,1737654378820,negativa;neutra;positiva
1737654509,bc2584302fffead698e1809107a60040,PennController,76,0,frases,NULL,PennController,77,_Trial_,End,1737654378821,NULL
1737654509,bc2584302fffead698e1809107a60040,PennController,77,0,frases,NULL,PennController,78,_Trial_,Start,1737654378822,NULL
1737654509,bc2584302fffead698e1809107a60040,PennController,77,0,frases,NULL,Selector,classificacao,Selection,neutra,1737654380948,negativa;neutra;positiva
1737654509,bc2584302fffead698e1809107a60040,PennController,77,0,frases,NULL,PennController,78,_Trial_,End,1737654380948,NULL
1737654509,bc2584302fffead698e1809107a60040,PennController,78,0,frases,NULL,PennController,79,_Trial_,Start,1737654380949,NULL
1737654509,bc2584302fffead698e1809107a60040,PennController,78,0,frases,NULL,Selector,classificacao,Selection,positiva,1737654384364,negativa;neutra;positiva
1737654509,bc2584302fffead698e1809107a60040,PennController,78,0,frases,NULL,PennController,79,_Trial_,End,1737654384365,NULL
1737654509,bc2584302fffead698e1809107a60040,PennController,79,0,frases,NULL,PennController,80,_Trial_,Start,1737654384366,NULL
1737654509,bc2584302fffead698e1809107a60040,PennController,79,0,frases,NULL,Selector,classificacao,Selection,positiva,1737654386516,negativa;neutra;positiva
1737654509,bc2584302fffead698e1809107a60040,PennController,79,0,frases,NULL,PennController,80,_Trial_,End,1737654386516,NULL
1737654509,bc2584302fffead698e1809107a60040,PennController,80,0,frases,NULL,PennController,81,_Trial_,Start,1737654386516,NULL
1737654509,bc2584302fffead698e1809107a60040,PennController,80,0,frases,NULL,Selector,classificacao,Selection,positiva,1737654393972,negativa;neutra;positiva
1737654509,bc2584302fffead698e1809107a60040,PennController,80,0,frases,NULL,PennController,81,_Trial_,End,1737654393973,NULL
1737654509,bc2584302fffead698e1809107a60040,PennController,81,0,frases,NULL,PennController,82,_Trial_,Start,1737654393974,NULL
1737654509,bc2584302fffead698e1809107a60040,PennController,81,0,frases,NULL,Selector,classificacao,Selection,neutra,1737654396853,negativa;neutra;positiva
1737654509,bc2584302fffead698e1809107a60040,PennController,81,0,frases,NULL,PennController,82,_Trial_,End,1737654396854,NULL
1737654509,bc2584302fffead698e1809107a60040,PennController,82,0,frases,NULL,PennController,83,_Trial_,Start,1737654396854,NULL
1737654509,bc2584302fffead698e1809107a60040,PennController,82,0,frases,NULL,Selector,classificacao,Selection,positiva,1737654399317,negativa;neutra;positiva
1737654509,bc2584302fffead698e1809107a60040,PennController,82,0,frases,NULL,PennController,83,_Trial_,End,1737654399318,NULL
1737654509,bc2584302fffead698e1809107a60040,PennController,83,0,frases,NULL,PennController,84,_Trial_,Start,1737654399318,NULL
1737654509,bc2584302fffead698e1809107a60040,PennController,83,0,frases,NULL,Selector,classificacao,Selection,negativa,1737654401013,negativa;neutra;positiva
1737654509,bc2584302fffead698e1809107a60040,PennController,83,0,frases,NULL,PennController,84,_Trial_,End,1737654401015,NULL
1737654509,bc2584302fffead698e1809107a60040,PennController,84,0,frases,NULL,PennController,85,_Trial_,Start,1737654401015,NULL
1737654509,bc2584302fffead698e1809107a60040,PennController,84,0,frases,NULL,Selector,classificacao,Selection,negativa,1737654402788,negativa;neutra;positiva
1737654509,bc2584302fffead698e1809107a60040,PennController,84,0,frases,NULL,PennController,85,_Trial_,End,1737654402788,NULL
1737654509,bc2584302fffead698e1809107a60040,PennController,85,0,frases,NULL,PennController,86,_Trial_,Start,1737654402789,NULL
1737654509,bc2584302fffead698e1809107a60040,PennController,85,0,frases,NULL,Selector,classificacao,Selection,positiva,1737654404550,negativa;neutra;positiva
1737654509,bc2584302fffead698e1809107a60040,PennController,85,0,frases,NULL,PennController,86,_Trial_,End,1737654404550,NULL
1737654509,bc2584302fffead698e1809107a60040,PennController,86,0,frases,NULL,PennController,87,_Trial_,Start,1737654404551,NULL
1737654509,bc2584302fffead698e1809107a60040,PennController,86,0,frases,NULL,Selector,classificacao,Selection,negativa,1737654410279,negativa;neutra;positiva
1737654509,bc2584302fffead698e1809107a60040,PennController,86,0,frases,NULL,PennController,87,_Trial_,End,1737654410279,NULL
1737654509,bc2584302fffead698e1809107a60040,PennController,87,0,frases,NULL,PennController,88,_Trial_,Start,1737654410280,NULL
1737654509,bc2584302fffead698e1809107a60040,PennController,87,0,frases,NULL,Selector,classificacao,Selection,negativa,1737654415035,negativa;neutra;positiva
1737654509,bc2584302fffead698e1809107a60040,PennController,87,0,frases,NULL,PennController,88,_Trial_,End,1737654415036,NULL
1737654509,bc2584302fffead698e1809107a60040,PennController,88,0,frases,NULL,PennController,89,_Trial_,Start,1737654415037,NULL
1737654509,bc2584302fffead698e1809107a60040,PennController,88,0,frases,NULL,Selector,classificacao,Selection,negativa,1737654417149,negativa;neutra;positiva
1737654509,bc2584302fffead698e1809107a60040,PennController,88,0,frases,NULL,PennController,89,_Trial_,End,1737654417150,NULL
1737654509,bc2584302fffead698e1809107a60040,PennController,89,0,frases,NULL,PennController,90,_Trial_,Start,1737654417151,NULL
1737654509,bc2584302fffead698e1809107a60040,PennController,89,0,frases,NULL,Selector,classificacao,Selection,neutra,1737654419212,negativa;neutra;positiva
1737654509,bc2584302fffead698e1809107a60040,PennController,89,0,frases,NULL,PennController,90,_Trial_,End,1737654419213,NULL
1737654509,bc2584302fffead698e1809107a60040,PennController,90,0,frases,NULL,PennController,91,_Trial_,Start,1737654419214,NULL
1737654509,bc2584302fffead698e1809107a60040,PennController,90,0,frases,NULL,Selector,classificacao,Selection,positiva,1737654420563,negativa;neutra;positiva
1737654509,bc2584302fffead698e1809107a60040,PennController,90,0,frases,NULL,PennController,91,_Trial_,End,1737654420564,NULL
1737654509,bc2584302fffead698e1809107a60040,PennController,91,0,frases,NULL,PennController,92,_Trial_,Start,1737654420565,NULL
1737654509,bc2584302fffead698e1809107a60040,PennController,91,0,frases,NULL,Selector,classificacao,Selection,neutra,1737654425781,negativa;neutra;positiva
1737654509,bc2584302fffead698e1809107a60040,PennController,91,0,frases,NULL,PennController,92,_Trial_,End,1737654425781,NULL
1737654509,bc2584302fffead698e1809107a60040,PennController,92,0,frases,NULL,PennController,93,_Trial_,Start,1737654425782,NULL
1737654509,bc2584302fffead698e1809107a60040,PennController,92,0,frases,NULL,Selector,classificacao,Selection,negativa,1737654427357,negativa;neutra;positiva
1737654509,bc2584302fffead698e1809107a60040,PennController,92,0,frases,NULL,PennController,93,_Trial_,End,1737654427357,NULL
1737654509,bc2584302fffead698e1809107a60040,PennController,93,0,frases,NULL,PennController,94,_Trial_,Start,1737654427358,NULL
1737654509,bc2584302fffead698e1809107a60040,PennController,93,0,frases,NULL,Selector,classificacao,Selection,negativa,1737654433436,negativa;neutra;positiva
1737654509,bc2584302fffead698e1809107a60040,PennController,93,0,frases,NULL,PennController,94,_Trial_,End,1737654433437,NULL
1737654509,bc2584302fffead698e1809107a60040,PennController,94,0,frases,NULL,PennController,95,_Trial_,Start,1737654433437,NULL
1737654509,bc2584302fffead698e1809107a60040,PennController,94,0,frases,NULL,Selector,classificacao,Selection,positiva,1737654436564,negativa;neutra;positiva
1737654509,bc2584302fffead698e1809107a60040,PennController,94,0,frases,NULL,PennController,95,_Trial_,End,1737654436565,NULL
1737654509,bc2584302fffead698e1809107a60040,PennController,95,0,frases,NULL,PennController,96,_Trial_,Start,1737654436566,NULL
1737654509,bc2584302fffead698e1809107a60040,PennController,95,0,frases,NULL,Selector,classificacao,Selection,neutra,1737654440573,negativa;neutra;positiva
1737654509,bc2584302fffead698e1809107a60040,PennController,95,0,frases,NULL,PennController,96,_Trial_,End,1737654440574,NULL
1737654509,bc2584302fffead698e1809107a60040,PennController,96,0,frases,NULL,PennController,97,_Trial_,Start,1737654440575,NULL
1737654509,bc2584302fffead698e1809107a60040,PennController,96,0,frases,NULL,Selector,classificacao,Selection,negativa,1737654443557,negativa;neutra;positiva
1737654509,bc2584302fffead698e1809107a60040,PennController,96,0,frases,NULL,PennController,97,_Trial_,End,1737654443558,NULL
1737654509,bc2584302fffead698e1809107a60040,PennController,97,0,frases,NULL,PennController,98,_Trial_,Start,1737654443558,NULL
1737654509,bc2584302fffead698e1809107a60040,PennController,97,0,frases,NULL,Selector,classificacao,Selection,negativa,1737654444951,negativa;neutra;positiva
1737654509,bc2584302fffead698e1809107a60040,PennController,97,0,frases,NULL,PennController,98,_Trial_,End,1737654444952,NULL
1737654509,bc2584302fffead698e1809107a60040,PennController,98,0,frases,NULL,PennController,99,_Trial_,Start,1737654444952,NULL
1737654509,bc2584302fffead698e1809107a60040,PennController,98,0,frases,NULL,Selector,classificacao,Selection,negativa,1737654446692,negativa;neutra;positiva
1737654509,bc2584302fffead698e1809107a60040,PennController,98,0,frases,NULL,PennController,99,_Trial_,End,1737654446693,NULL
1737654509,bc2584302fffead698e1809107a60040,PennController,99,0,frases,NULL,PennController,100,_Trial_,Start,1737654446693,NULL
1737654509,bc2584302fffead698e1809107a60040,PennController,99,0,frases,NULL,Selector,classificacao,Selection,neutra,1737654449637,negativa;neutra;positiva
1737654509,bc2584302fffead698e1809107a60040,PennController,99,0,frases,NULL,PennController,100,_Trial_,End,1737654449638,NULL
1737654509,bc2584302fffead698e1809107a60040,PennController,100,0,frases,NULL,PennController,101,_Trial_,Start,1737654449639,NULL
1737654509,bc2584302fffead698e1809107a60040,PennController,100,0,frases,NULL,Selector,classificacao,Selection,negativa,1737654453653,negativa;neutra;positiva
1737654509,bc2584302fffead698e1809107a60040,PennController,100,0,frases,NULL,PennController,101,_Trial_,End,1737654453654,NULL
1737654509,bc2584302fffead698e1809107a60040,PennController,101,0,frases,NULL,PennController,102,_Trial_,Start,1737654453654,NULL
1737654509,bc2584302fffead698e1809107a60040,PennController,101,0,frases,NULL,Selector,classificacao,Selection,negativa,1737654457549,negativa;neutra;positiva
1737654509,bc2584302fffead698e1809107a60040,PennController,101,0,frases,NULL,PennController,102,_Trial_,End,1737654457549,NULL
1737654509,bc2584302fffead698e1809107a60040,PennController,102,0,frases,NULL,PennController,103,_Trial_,Start,1737654457549,NULL
1737654509,bc2584302fffead698e1809107a60040,PennController,102,0,frases,NULL,Selector,classificacao,Selection,positiva,1737654458813,negativa;neutra;positiva
1737654509,bc2584302fffead698e1809107a60040,PennController,102,0,frases,NULL,PennController,103,_Trial_,End,1737654458814,NULL
1737654509,bc2584302fffead698e1809107a60040,PennController,103,0,frases,NULL,PennController,104,_Trial_,Start,1737654458815,NULL
1737654509,bc2584302fffead698e1809107a60040,PennController,103,0,frases,NULL,Selector,classificacao,Selection,neutra,1737654461748,negativa;neutra;positiva
1737654509,bc2584302fffead698e1809107a60040,PennController,103,0,frases,NULL,PennController,104,_Trial_,End,1737654461749,NULL
1737654509,bc2584302fffead698e1809107a60040,PennController,104,0,frases,NULL,PennController,105,_Trial_,Start,1737654461749,NULL
1737654509,bc2584302fffead698e1809107a60040,PennController,104,0,frases,NULL,Selector,classificacao,Selection,positiva,1737654465524,negativa;neutra;positiva
1737654509,bc2584302fffead698e1809107a60040,PennController,104,0,frases,NULL,PennController,105,_Trial_,End,1737654465525,NULL
1737654509,bc2584302fffead698e1809107a60040,PennController,105,0,frases,NULL,PennController,106,_Trial_,Start,1737654465526,NULL
1737654509,bc2584302fffead698e1809107a60040,PennController,105,0,frases,NULL,Selector,classificacao,Selection,negativa,1737654470903,negativa;neutra;positiva
1737654509,bc2584302fffead698e1809107a60040,PennController,105,0,frases,NULL,PennController,106,_Trial_,End,1737654470904,NULL
1737654509,bc2584302fffead698e1809107a60040,PennController,106,0,frases,NULL,PennController,107,_Trial_,Start,1737654470905,NULL
1737654509,bc2584302fffead698e1809107a60040,PennController,106,0,frases,NULL,Selector,classificacao,Selection,positiva,1737654474493,negativa;neutra;positiva
1737654509,bc2584302fffead698e1809107a60040,PennController,106,0,frases,NULL,PennController,107,_Trial_,End,1737654474494,NULL
1737654509,bc2584302fffead698e1809107a60040,PennController,107,0,frases,NULL,PennController,108,_Trial_,Start,1737654474495,NULL
1737654509,bc2584302fffead698e1809107a60040,PennController,107,0,frases,NULL,Selector,classificacao,Selection,neutra,1737654479068,negativa;neutra;positiva
1737654509,bc2584302fffead698e1809107a60040,PennController,107,0,frases,NULL,PennController,108,_Trial_,End,1737654479068,NULL
1737654509,bc2584302fffead698e1809107a60040,PennController,108,0,frases,NULL,PennController,109,_Trial_,Start,1737654479069,NULL
1737654509,bc2584302fffead698e1809107a60040,PennController,108,0,frases,NULL,Selector,classificacao,Selection,neutra,1737654480349,negativa;neutra;positiva
1737654509,bc2584302fffead698e1809107a60040,PennController,108,0,frases,NULL,PennController,109,_Trial_,End,1737654480349,NULL
1737654509,bc2584302fffead698e1809107a60040,PennController,109,0,frases,NULL,PennController,110,_Trial_,Start,1737654480350,NULL
1737654509,bc2584302fffead698e1809107a60040,PennController,109,0,frases,NULL,Selector,classificacao,Selection,positiva,1737654482420,negativa;neutra;positiva
1737654509,bc2584302fffead698e1809107a60040,PennController,109,0,frases,NULL,PennController,110,_Trial_,End,1737654482421,NULL
1737654509,bc2584302fffead698e1809107a60040,PennController,110,0,frases,NULL,PennController,111,_Trial_,Start,1737654482421,NULL
1737654509,bc2584302fffead698e1809107a60040,PennController,110,0,frases,NULL,Selector,classificacao,Selection,positiva,1737654483885,negativa;neutra;positiva
1737654509,bc2584302fffead698e1809107a60040,PennController,110,0,frases,NULL,PennController,111,_Trial_,End,1737654483885,NULL
1737654509,bc2584302fffead698e1809107a60040,PennController,111,0,frases,NULL,PennController,112,_Trial_,Start,1737654483886,NULL
1737654509,bc2584302fffead698e1809107a60040,PennController,111,0,frases,NULL,Selector,classificacao,Selection,neutra,1737654487077,negativa;neutra;positiva
1737654509,bc2584302fffead698e1809107a60040,PennController,111,0,frases,NULL,PennController,112,_Trial_,End,1737654487078,NULL
1737654509,bc2584302fffead698e1809107a60040,PennController,112,0,frases,NULL,PennController,113,_Trial_,Start,1737654487078,NULL
1737654509,bc2584302fffead698e1809107a60040,PennController,112,0,frases,NULL,Selector,classificacao,Selection,positiva,1737654490515,negativa;neutra;positiva
1737654509,bc2584302fffead698e1809107a60040,PennController,112,0,frases,NULL,PennController,113,_Trial_,End,1737654490516,NULL
1737654509,bc2584302fffead698e1809107a60040,PennController,113,0,frases,NULL,PennController,114,_Trial_,Start,1737654490516,NULL
1737654509,bc2584302fffead698e1809107a60040,PennController,113,0,frases,NULL,Selector,classificacao,Selection,positiva,1737654492477,negativa;neutra;positiva
1737654509,bc2584302fffead698e1809107a60040,PennController,113,0,frases,NULL,PennController,114,_Trial_,End,1737654492478,NULL
1737654509,bc2584302fffead698e1809107a60040,PennController,114,0,frases,NULL,PennController,115,_Trial_,Start,1737654492479,NULL
1737654509,bc2584302fffead698e1809107a60040,PennController,114,0,frases,NULL,Selector,classificacao,Selection,positiva,1737654493813,negativa;neutra;positiva
1737654509,bc2584302fffead698e1809107a60040,PennController,114,0,frases,NULL,PennController,115,_Trial_,End,1737654493814,NULL
1737654509,bc2584302fffead698e1809107a60040,PennController,115,0,frases,NULL,PennController,116,_Trial_,Start,1737654493814,NULL
1737654509,bc2584302fffead698e1809107a60040,PennController,115,0,frases,NULL,Selector,classificacao,Selection,positiva,1737654498077,negativa;neutra;positiva
1737654509,bc2584302fffead698e1809107a60040,PennController,115,0,frases,NULL,PennController,116,_Trial_,End,1737654498078,NULL
1737654509,bc2584302fffead698e1809107a60040,PennController,116,0,frases,NULL,PennController,117,_Trial_,Start,1737654498079,NULL
1737654509,bc2584302fffead698e1809107a60040,PennController,116,0,frases,NULL,Selector,classificacao,Selection,neutra,1737654500124,negativa;neutra;positiva
1737654509,bc2584302fffead698e1809107a60040,PennController,116,0,frases,NULL,PennController,117,_Trial_,End,1737654500124,NULL
1737654509,bc2584302fffead698e1809107a60040,PennController,117,0,frases,NULL,PennController,118,_Trial_,Start,1737654500125,NULL
1737654509,bc2584302fffead698e1809107a60040,PennController,117,0,frases,NULL,Selector,classificacao,Selection,positiva,1737654503421,negativa;neutra;positiva
1737654509,bc2584302fffead698e1809107a60040,PennController,117,0,frases,NULL,PennController,118,_Trial_,End,1737654503421,NULL
1737654509,bc2584302fffead698e1809107a60040,PennController,118,0,frases,NULL,PennController,119,_Trial_,Start,1737654503422,NULL
1737654509,bc2584302fffead698e1809107a60040,PennController,118,0,frases,NULL,Selector,classificacao,Selection,neutra,1737654508372,negativa;neutra;positiva
1737654509,bc2584302fffead698e1809107a60040,PennController,118,0,frases,NULL,PennController,119,_Trial_,End,1737654508372,NULL
1737654509,bc2584302fffead698e1809107a60040,PennController,119,0,agradecimento,NULL,PennController,4,_Trial_,Start,1737654508373,NULL
1737654509,bc2584302fffead698e1809107a60040,PennController,119,0,agradecimento,NULL,PennController,4,_Trial_,End,1737654509204,NULL
#
# Results on Fri, 24 Jan 2025 04:41:11 GMT
# USER AGENT: Mozilla/5.0 (Windows NT 10.0; Win64; x64) AppleWebKit/537.36 (KHTML, like Gecko) Chrome/132.0.0.0 Safari/537.36
# Design number was non-random = 1
#
# Columns below this comment are as follows:
# 1. Results reception time.
# 2. MD5 hash of participant's IP address.
# 3. Controller name.
# 4. Order number of item.
# 5. Inner element number.
# 6. Label.
# 7. Latin Square Group.
# 8. PennElementType.
# 9. PennElementName.
# 10. Parameter.
# 11. Value.
# 12. EventTime.
# 13. Comments.
1737693671,77da0ef6622c18e6a245f2609d5fc04b,PennController,0,0,TCLE,NULL,PennController,0,_Trial_,Start,1737692243832,NULL
1737693671,77da0ef6622c18e6a245f2609d5fc04b,PennController,0,0,TCLE,NULL,PennController,0,_Trial_,End,1737692255148,NULL
1737693671,77da0ef6622c18e6a245f2609d5fc04b,PennController,3,0,instrucoes,NULL,PennController,3,_Trial_,Start,1737692255156,NULL
1737693671,77da0ef6622c18e6a245f2609d5fc04b,PennController,3,0,instrucoes,NULL,PennController,3,_Trial_,End,1737692271329,NULL
1737693671,77da0ef6622c18e6a245f2609d5fc04b,PennController,1,0,genero,NULL,PennController,1,_Trial_,Start,1737692271334,NULL
1737693671,77da0ef6622c18e6a245f2609d5fc04b,PennController,1,0,genero,NULL,DropDown,selecionaGenero,Selected,Feminino,1737692276533,1
1737693671,77da0ef6622c18e6a245f2609d5fc04b,PennController,1,0,genero,NULL,PennController,1,_Trial_,End,1737692277436,NULL
1737693671,77da0ef6622c18e6a245f2609d5fc04b,PennController,4,0,frases,NULL,PennController,5,_Trial_,Start,1737692277440,NULL
1737693671,77da0ef6622c18e6a245f2609d5fc04b,PennController,4,0,frases,NULL,Selector,classificacao,Selection,negativa,1737692351874,negativa;neutra;positiva
1737693671,77da0ef6622c18e6a245f2609d5fc04b,PennController,4,0,frases,NULL,PennController,5,_Trial_,End,1737692351879,NULL
1737693671,77da0ef6622c18e6a245f2609d5fc04b,PennController,5,0,frases,NULL,PennController,6,_Trial_,Start,1737692351885,NULL
1737693671,77da0ef6622c18e6a245f2609d5fc04b,PennController,5,0,frases,NULL,Selector,classificacao,Selection,negativa,1737692361593,negativa;neutra;positiva
1737693671,77da0ef6622c18e6a245f2609d5fc04b,PennController,5,0,frases,NULL,PennController,6,_Trial_,End,1737692361596,NULL
1737693671,77da0ef6622c18e6a245f2609d5fc04b,PennController,6,0,frases,NULL,PennController,7,_Trial_,Start,1737692361598,NULL
1737693671,77da0ef6622c18e6a245f2609d5fc04b,PennController,6,0,frases,NULL,Selector,classificacao,Selection,neutra,1737692367295,negativa;neutra;positiva
1737693671,77da0ef6622c18e6a245f2609d5fc04b,PennController,6,0,frases,NULL,PennController,7,_Trial_,End,1737692367298,NULL
1737693671,77da0ef6622c18e6a245f2609d5fc04b,PennController,7,0,frases,NULL,PennController,8,_Trial_,Start,1737692367302,NULL
1737693671,77da0ef6622c18e6a245f2609d5fc04b,PennController,7,0,frases,NULL,Selector,classificacao,Selection,positiva,1737692374450,negativa;neutra;positiva
1737693671,77da0ef6622c18e6a245f2609d5fc04b,PennController,7,0,frases,NULL,PennController,8,_Trial_,End,1737692374453,NULL
1737693671,77da0ef6622c18e6a245f2609d5fc04b,PennController,8,0,frases,NULL,PennController,9,_Trial_,Start,1737692374455,NULL
1737693671,77da0ef6622c18e6a245f2609d5fc04b,PennController,8,0,frases,NULL,Selector,classificacao,Selection,negativa,1737692385643,negativa;neutra;positiva
1737693671,77da0ef6622c18e6a245f2609d5fc04b,PennController,8,0,frases,NULL,PennController,9,_Trial_,End,1737692385646,NULL
1737693671,77da0ef6622c18e6a245f2609d5fc04b,PennController,9,0,frases,NULL,PennController,10,_Trial_,Start,1737692385650,NULL
1737693671,77da0ef6622c18e6a245f2609d5fc04b,PennController,9,0,frases,NULL,Selector,classificacao,Selection,negativa,1737692392248,negativa;neutra;positiva
1737693671,77da0ef6622c18e6a245f2609d5fc04b,PennController,9,0,frases,NULL,PennController,10,_Trial_,End,1737692392251,NULL
1737693671,77da0ef6622c18e6a245f2609d5fc04b,PennController,10,0,frases,NULL,PennController,11,_Trial_,Start,1737692392255,NULL
1737693671,77da0ef6622c18e6a245f2609d5fc04b,PennController,10,0,frases,NULL,Selector,classificacao,Selection,negativa,1737692405703,negativa;neutra;positiva
1737693671,77da0ef6622c18e6a245f2609d5fc04b,PennController,10,0,frases,NULL,PennController,11,_Trial_,End,1737692405706,NULL
1737693671,77da0ef6622c18e6a245f2609d5fc04b,PennController,11,0,frases,NULL,PennController,12,_Trial_,Start,1737692405708,NULL
1737693671,77da0ef6622c18e6a245f2609d5fc04b,PennController,11,0,frases,NULL,Selector,classificacao,Selection,positiva,1737692409954,negativa;neutra;positiva
1737693671,77da0ef6622c18e6a245f2609d5fc04b,PennController,11,0,frases,NULL,PennController,12,_Trial_,End,1737692409956,NULL
1737693671,77da0ef6622c18e6a245f2609d5fc04b,PennController,12,0,frases,NULL,PennController,13,_Trial_,Start,1737692409958,NULL
1737693671,77da0ef6622c18e6a245f2609d5fc04b,PennController,12,0,frases,NULL,Selector,classificacao,Selection,negativa,1737692420979,negativa;neutra;positiva
1737693671,77da0ef6622c18e6a245f2609d5fc04b,PennController,12,0,frases,NULL,PennController,13,_Trial_,End,1737692420982,NULL
1737693671,77da0ef6622c18e6a245f2609d5fc04b,PennController,13,0,frases,NULL,PennController,14,_Trial_,Start,1737692420985,NULL
1737693671,77da0ef6622c18e6a245f2609d5fc04b,PennController,13,0,frases,NULL,Selector,classificacao,Selection,neutra,1737692435706,negativa;neutra;positiva
1737693671,77da0ef6622c18e6a245f2609d5fc04b,PennController,13,0,frases,NULL,PennController,14,_Trial_,End,1737692435708,NULL
1737693671,77da0ef6622c18e6a245f2609d5fc04b,PennController,14,0,frases,NULL,PennController,15,_Trial_,Start,1737692435711,NULL
1737693671,77da0ef6622c18e6a245f2609d5fc04b,PennController,14,0,frases,NULL,Selector,classificacao,Selection,neutra,1737692446223,negativa;neutra;positiva
1737693671,77da0ef6622c18e6a245f2609d5fc04b,PennController,14,0,frases,NULL,PennController,15,_Trial_,End,1737692446228,NULL
1737693671,77da0ef6622c18e6a245f2609d5fc04b,PennController,15,0,frases,NULL,PennController,16,_Trial_,Start,1737692446231,NULL
1737693671,77da0ef6622c18e6a245f2609d5fc04b,PennController,15,0,frases,NULL,Selector,classificacao,Selection,negativa,1737692461601,negativa;neutra;positiva
1737693671,77da0ef6622c18e6a245f2609d5fc04b,PennController,15,0,frases,NULL,PennController,16,_Trial_,End,1737692461603,NULL
1737693671,77da0ef6622c18e6a245f2609d5fc04b,PennController,16,0,frases,NULL,PennController,17,_Trial_,Start,1737692461605,NULL
1737693671,77da0ef6622c18e6a245f2609d5fc04b,PennController,16,0,frases,NULL,Selector,classificacao,Selection,negativa,1737692470083,negativa;neutra;positiva
1737693671,77da0ef6622c18e6a245f2609d5fc04b,PennController,16,0,frases,NULL,PennController,17,_Trial_,End,1737692470085,NULL
1737693671,77da0ef6622c18e6a245f2609d5fc04b,PennController,17,0,frases,NULL,PennController,18,_Trial_,Start,1737692470088,NULL
1737693671,77da0ef6622c18e6a245f2609d5fc04b,PennController,17,0,frases,NULL,Selector,classificacao,Selection,neutra,1737692475731,negativa;neutra;positiva
1737693671,77da0ef6622c18e6a245f2609d5fc04b,PennController,17,0,frases,NULL,PennController,18,_Trial_,End,1737692475735,NULL
1737693671,77da0ef6622c18e6a245f2609d5fc04b,PennController,18,0,frases,NULL,PennController,19,_Trial_,Start,1737692475738,NULL
1737693671,77da0ef6622c18e6a245f2609d5fc04b,PennController,18,0,frases,NULL,Selector,classificacao,Selection,neutra,1737692503810,negativa;neutra;positiva
1737693671,77da0ef6622c18e6a245f2609d5fc04b,PennController,18,0,frases,NULL,PennController,19,_Trial_,End,1737692503812,NULL
1737693671,77da0ef6622c18e6a245f2609d5fc04b,PennController,19,0,frases,NULL,PennController,20,_Trial_,Start,1737692503814,NULL
1737693671,77da0ef6622c18e6a245f2609d5fc04b,PennController,19,0,frases,NULL,Selector,classificacao,Selection,positiva,1737692515577,negativa;neutra;positiva
1737693671,77da0ef6622c18e6a245f2609d5fc04b,PennController,19,0,frases,NULL,PennController,20,_Trial_,End,1737692515582,NULL
1737693671,77da0ef6622c18e6a245f2609d5fc04b,PennController,20,0,frases,NULL,PennController,21,_Trial_,Start,1737692515585,NULL
1737693671,77da0ef6622c18e6a245f2609d5fc04b,PennController,20,0,frases,NULL,Selector,classificacao,Selection,negativa,1737692524419,negativa;neutra;positiva
1737693671,77da0ef6622c18e6a245f2609d5fc04b,PennController,20,0,frases,NULL,PennController,21,_Trial_,End,1737692524423,NULL
1737693671,77da0ef6622c18e6a245f2609d5fc04b,PennController,21,0,frases,NULL,PennController,22,_Trial_,Start,1737692524425,NULL
1737693671,77da0ef6622c18e6a245f2609d5fc04b,PennController,21,0,frases,NULL,Selector,classificacao,Selection,negativa,1737692529371,negativa;neutra;positiva
1737693671,77da0ef6622c18e6a245f2609d5fc04b,PennController,21,0,frases,NULL,PennController,22,_Trial_,End,1737692529374,NULL
1737693671,77da0ef6622c18e6a245f2609d5fc04b,PennController,22,0,frases,NULL,PennController,23,_Trial_,Start,1737692529376,NULL
1737693671,77da0ef6622c18e6a245f2609d5fc04b,PennController,22,0,frases,NULL,Selector,classificacao,Selection,positiva,1737692538685,negativa;neutra;positiva
1737693671,77da0ef6622c18e6a245f2609d5fc04b,PennController,22,0,frases,NULL,PennController,23,_Trial_,End,1737692538688,NULL
1737693671,77da0ef6622c18e6a245f2609d5fc04b,PennController,23,0,frases,NULL,PennController,24,_Trial_,Start,1737692538691,NULL
1737693671,77da0ef6622c18e6a245f2609d5fc04b,PennController,23,0,frases,NULL,Selector,classificacao,Selection,neutra,1737692565853,negativa;neutra;positiva
1737693671,77da0ef6622c18e6a245f2609d5fc04b,PennController,23,0,frases,NULL,PennController,24,_Trial_,End,1737692565856,NULL
1737693671,77da0ef6622c18e6a245f2609d5fc04b,PennController,24,0,frases,NULL,PennController,25,_Trial_,Start,1737692565859,NULL
1737693671,77da0ef6622c18e6a245f2609d5fc04b,PennController,24,0,frases,NULL,Selector,classificacao,Selection,neutra,1737692579073,negativa;neutra;positiva
1737693671,77da0ef6622c18e6a245f2609d5fc04b,PennController,24,0,frases,NULL,PennController,25,_Trial_,End,1737692579078,NULL
1737693671,77da0ef6622c18e6a245f2609d5fc04b,PennController,25,0,frases,NULL,PennController,26,_Trial_,Start,1737692579081,NULL
1737693671,77da0ef6622c18e6a245f2609d5fc04b,PennController,25,0,frases,NULL,Selector,classificacao,Selection,negativa,1737692588160,negativa;neutra;positiva
1737693671,77da0ef6622c18e6a245f2609d5fc04b,PennController,25,0,frases,NULL,PennController,26,_Trial_,End,1737692588163,NULL
1737693671,77da0ef6622c18e6a245f2609d5fc04b,PennController,26,0,frases,NULL,PennController,27,_Trial_,Start,1737692588166,NULL
1737693671,77da0ef6622c18e6a245f2609d5fc04b,PennController,26,0,frases,NULL,Selector,classificacao,Selection,neutra,1737692607028,negativa;neutra;positiva
1737693671,77da0ef6622c18e6a245f2609d5fc04b,PennController,26,0,frases,NULL,PennController,27,_Trial_,End,1737692607031,NULL
1737693671,77da0ef6622c18e6a245f2609d5fc04b,PennController,27,0,frases,NULL,PennController,28,_Trial_,Start,1737692607033,NULL
1737693671,77da0ef6622c18e6a245f2609d5fc04b,PennController,27,0,frases,NULL,Selector,classificacao,Selection,negativa,1737692621965,negativa;neutra;positiva
1737693671,77da0ef6622c18e6a245f2609d5fc04b,PennController,27,0,frases,NULL,PennController,28,_Trial_,End,1737692621968,NULL
1737693671,77da0ef6622c18e6a245f2609d5fc04b,PennController,28,0,frases,NULL,PennController,29,_Trial_,Start,1737692621970,NULL
1737693671,77da0ef6622c18e6a245f2609d5fc04b,PennController,28,0,frases,NULL,Selector,classificacao,Selection,neutra,1737692629053,negativa;neutra;positiva
1737693671,77da0ef6622c18e6a245f2609d5fc04b,PennController,28,0,frases,NULL,PennController,29,_Trial_,End,1737692629056,NULL
1737693671,77da0ef6622c18e6a245f2609d5fc04b,PennController,29,0,frases,NULL,PennController,30,_Trial_,Start,1737692629059,NULL
1737693671,77da0ef6622c18e6a245f2609d5fc04b,PennController,29,0,frases,NULL,Selector,classificacao,Selection,positiva,1737692638649,negativa;neutra;positiva
1737693671,77da0ef6622c18e6a245f2609d5fc04b,PennController,29,0,frases,NULL,PennController,30,_Trial_,End,1737692638651,NULL
1737693671,77da0ef6622c18e6a245f2609d5fc04b,PennController,30,0,frases,NULL,PennController,31,_Trial_,Start,1737692638654,NULL
1737693671,77da0ef6622c18e6a245f2609d5fc04b,PennController,30,0,frases,NULL,Selector,classificacao,Selection,negativa,1737692646108,negativa;neutra;positiva
1737693671,77da0ef6622c18e6a245f2609d5fc04b,PennController,30,0,frases,NULL,PennController,31,_Trial_,End,1737692646112,NULL
1737693671,77da0ef6622c18e6a245f2609d5fc04b,PennController,31,0,frases,NULL,PennController,32,_Trial_,Start,1737692646114,NULL
1737693671,77da0ef6622c18e6a245f2609d5fc04b,PennController,31,0,frases,NULL,Selector,classificacao,Selection,neutra,1737692650686,negativa;neutra;positiva
1737693671,77da0ef6622c18e6a245f2609d5fc04b,PennController,31,0,frases,NULL,PennController,32,_Trial_,End,1737692650688,NULL
1737693671,77da0ef6622c18e6a245f2609d5fc04b,PennController,32,0,frases,NULL,PennController,33,_Trial_,Start,1737692650690,NULL
1737693671,77da0ef6622c18e6a245f2609d5fc04b,PennController,32,0,frases,NULL,Selector,classificacao,Selection,negativa,1737692660991,negativa;neutra;positiva
1737693671,77da0ef6622c18e6a245f2609d5fc04b,PennController,32,0,frases,NULL,PennController,33,_Trial_,End,1737692660994,NULL
1737693671,77da0ef6622c18e6a245f2609d5fc04b,PennController,33,0,frases,NULL,PennController,34,_Trial_,Start,1737692660997,NULL
1737693671,77da0ef6622c18e6a245f2609d5fc04b,PennController,33,0,frases,NULL,Selector,classificacao,Selection,positiva,1737692676841,negativa;neutra;positiva
1737693671,77da0ef6622c18e6a245f2609d5fc04b,PennController,33,0,frases,NULL,PennController,34,_Trial_,End,1737692676844,NULL
1737693671,77da0ef6622c18e6a245f2609d5fc04b,PennController,34,0,frases,NULL,PennController,35,_Trial_,Start,1737692676846,NULL
1737693671,77da0ef6622c18e6a245f2609d5fc04b,PennController,34,0,frases,NULL,Selector,classificacao,Selection,negativa,1737692690015,negativa;neutra;positiva
1737693671,77da0ef6622c18e6a245f2609d5fc04b,PennController,34,0,frases,NULL,PennController,35,_Trial_,End,1737692690018,NULL
1737693671,77da0ef6622c18e6a245f2609d5fc04b,PennController,35,0,frases,NULL,PennController,36,_Trial_,Start,1737692690020,NULL
1737693671,77da0ef6622c18e6a245f2609d5fc04b,PennController,35,0,frases,NULL,Selector,classificacao,Selection,neutra,1737692719725,negativa;neutra;positiva
1737693671,77da0ef6622c18e6a245f2609d5fc04b,PennController,35,0,frases,NULL,PennController,36,_Trial_,End,1737692719728,NULL
1737693671,77da0ef6622c18e6a245f2609d5fc04b,PennController,36,0,frases,NULL,PennController,37,_Trial_,Start,1737692719730,NULL
1737693671,77da0ef6622c18e6a245f2609d5fc04b,PennController,36,0,frases,NULL,Selector,classificacao,Selection,neutra,1737692731132,negativa;neutra;positiva
1737693671,77da0ef6622c18e6a245f2609d5fc04b,PennController,36,0,frases,NULL,PennController,37,_Trial_,End,1737692731134,NULL
1737693671,77da0ef6622c18e6a245f2609d5fc04b,PennController,37,0,frases,NULL,PennController,38,_Trial_,Start,1737692731137,NULL
1737693671,77da0ef6622c18e6a245f2609d5fc04b,PennController,37,0,frases,NULL,Selector,classificacao,Selection,negativa,1737692741336,negativa;neutra;positiva
1737693671,77da0ef6622c18e6a245f2609d5fc04b,PennController,37,0,frases,NULL,PennController,38,_Trial_,End,1737692741338,NULL
1737693671,77da0ef6622c18e6a245f2609d5fc04b,PennController,38,0,frases,NULL,PennController,39,_Trial_,Start,1737692741340,NULL
1737693671,77da0ef6622c18e6a245f2609d5fc04b,PennController,38,0,frases,NULL,Selector,classificacao,Selection,neutra,1737692751415,negativa;neutra;positiva
1737693671,77da0ef6622c18e6a245f2609d5fc04b,PennController,38,0,frases,NULL,PennController,39,_Trial_,End,1737692751417,NULL
1737693671,77da0ef6622c18e6a245f2609d5fc04b,PennController,39,0,frases,NULL,PennController,40,_Trial_,Start,1737692751419,NULL
1737693671,77da0ef6622c18e6a245f2609d5fc04b,PennController,39,0,frases,NULL,Selector,classificacao,Selection,neutra,1737692761138,negativa;neutra;positiva
1737693671,77da0ef6622c18e6a245f2609d5fc04b,PennController,39,0,frases,NULL,PennController,40,_Trial_,End,1737692761140,NULL
1737693671,77da0ef6622c18e6a245f2609d5fc04b,PennController,40,0,frases,NULL,PennController,41,_Trial_,Start,1737692761142,NULL
1737693671,77da0ef6622c18e6a245f2609d5fc04b,PennController,40,0,frases,NULL,Selector,classificacao,Selection,neutra,1737692789045,negativa;neutra;positiva
1737693671,77da0ef6622c18e6a245f2609d5fc04b,PennController,40,0,frases,NULL,PennController,41,_Trial_,End,1737692789047,NULL
1737693671,77da0ef6622c18e6a245f2609d5fc04b,PennController,41,0,frases,NULL,PennController,42,_Trial_,Start,1737692789050,NULL
1737693671,77da0ef6622c18e6a245f2609d5fc04b,PennController,41,0,frases,NULL,Selector,classificacao,Selection,positiva,1737692812883,negativa;neutra;positiva
1737693671,77da0ef6622c18e6a245f2609d5fc04b,PennController,41,0,frases,NULL,PennController,42,_Trial_,End,1737692812887,NULL
1737693671,77da0ef6622c18e6a245f2609d5fc04b,PennController,42,0,frases,NULL,PennController,43,_Trial_,Start,1737692812889,NULL
1737693671,77da0ef6622c18e6a245f2609d5fc04b,PennController,42,0,frases,NULL,Selector,classificacao,Selection,negativa,1737692832210,negativa;neutra;positiva
1737693671,77da0ef6622c18e6a245f2609d5fc04b,PennController,42,0,frases,NULL,PennController,43,_Trial_,End,1737692832213,NULL
1737693671,77da0ef6622c18e6a245f2609d5fc04b,PennController,43,0,frases,NULL,PennController,44,_Trial_,Start,1737692832216,NULL
1737693671,77da0ef6622c18e6a245f2609d5fc04b,PennController,43,0,frases,NULL,Selector,classificacao,Selection,neutra,1737692846138,negativa;neutra;positiva
1737693671,77da0ef6622c18e6a245f2609d5fc04b,PennController,43,0,frases,NULL,PennController,44,_Trial_,End,1737692846140,NULL
1737693671,77da0ef6622c18e6a245f2609d5fc04b,PennController,44,0,frases,NULL,PennController,45,_Trial_,Start,1737692846143,NULL
1737693671,77da0ef6622c18e6a245f2609d5fc04b,PennController,44,0,frases,NULL,Selector,classificacao,Selection,negativa,1737692850087,negativa;neutra;positiva
1737693671,77da0ef6622c18e6a245f2609d5fc04b,PennController,44,0,frases,NULL,PennController,45,_Trial_,End,1737692850089,NULL
1737693671,77da0ef6622c18e6a245f2609d5fc04b,PennController,45,0,frases,NULL,PennController,46,_Trial_,Start,1737692850091,NULL
1737693671,77da0ef6622c18e6a245f2609d5fc04b,PennController,45,0,frases,NULL,Selector,classificacao,Selection,negativa,1737692889791,negativa;neutra;positiva
1737693671,77da0ef6622c18e6a245f2609d5fc04b,PennController,45,0,frases,NULL,PennController,46,_Trial_,End,1737692889796,NULL
1737693671,77da0ef6622c18e6a245f2609d5fc04b,PennController,46,0,frases,NULL,PennController,47,_Trial_,Start,1737692889799,NULL
1737693671,77da0ef6622c18e6a245f2609d5fc04b,PennController,46,0,frases,NULL,Selector,classificacao,Selection,positiva,1737692907549,negativa;neutra;positiva
1737693671,77da0ef6622c18e6a245f2609d5fc04b,PennController,46,0,frases,NULL,PennController,47,_Trial_,End,1737692907552,NULL
1737693671,77da0ef6622c18e6a245f2609d5fc04b,PennController,47,0,frases,NULL,PennController,48,_Trial_,Start,1737692907553,NULL
1737693671,77da0ef6622c18e6a245f2609d5fc04b,PennController,47,0,frases,NULL,Selector,classificacao,Selection,positiva,1737692911322,negativa;neutra;positiva
1737693671,77da0ef6622c18e6a245f2609d5fc04b,PennController,47,0,frases,NULL,PennController,48,_Trial_,End,1737692911331,NULL
1737693671,77da0ef6622c18e6a245f2609d5fc04b,PennController,48,0,frases,NULL,PennController,49,_Trial_,Start,1737692911338,NULL
1737693671,77da0ef6622c18e6a245f2609d5fc04b,PennController,48,0,frases,NULL,Selector,classificacao,Selection,negativa,1737692923253,negativa;neutra;positiva
1737693671,77da0ef6622c18e6a245f2609d5fc04b,PennController,48,0,frases,NULL,PennController,49,_Trial_,End,1737692923256,NULL
1737693671,77da0ef6622c18e6a245f2609d5fc04b,PennController,49,0,frases,NULL,PennController,50,_Trial_,Start,1737692923259,NULL
1737693671,77da0ef6622c18e6a245f2609d5fc04b,PennController,49,0,frases,NULL,Selector,classificacao,Selection,negativa,1737692931191,negativa;neutra;positiva
1737693671,77da0ef6622c18e6a245f2609d5fc04b,PennController,49,0,frases,NULL,PennController,50,_Trial_,End,1737692931193,NULL
1737693671,77da0ef6622c18e6a245f2609d5fc04b,PennController,50,0,frases,NULL,PennController,51,_Trial_,Start,1737692931195,NULL
1737693671,77da0ef6622c18e6a245f2609d5fc04b,PennController,50,0,frases,NULL,Selector,classificacao,Selection,negativa,1737692934231,negativa;neutra;positiva
1737693671,77da0ef6622c18e6a245f2609d5fc04b,PennController,50,0,frases,NULL,PennController,51,_Trial_,End,1737692934238,NULL
1737693671,77da0ef6622c18e6a245f2609d5fc04b,PennController,51,0,frases,NULL,PennController,52,_Trial_,Start,1737692934241,NULL
1737693671,77da0ef6622c18e6a245f2609d5fc04b,PennController,51,0,frases,NULL,Selector,classificacao,Selection,negativa,1737692939503,negativa;neutra;positiva
1737693671,77da0ef6622c18e6a245f2609d5fc04b,PennController,51,0,frases,NULL,PennController,52,_Trial_,End,1737692939505,NULL
1737693671,77da0ef6622c18e6a245f2609d5fc04b,PennController,52,0,frases,NULL,PennController,53,_Trial_,Start,1737692939507,NULL
1737693671,77da0ef6622c18e6a245f2609d5fc04b,PennController,52,0,frases,NULL,Selector,classificacao,Selection,negativa,1737692955220,negativa;neutra;positiva
1737693671,77da0ef6622c18e6a245f2609d5fc04b,PennController,52,0,frases,NULL,PennController,53,_Trial_,End,1737692955222,NULL
1737693671,77da0ef6622c18e6a245f2609d5fc04b,PennController,53,0,frases,NULL,PennController,54,_Trial_,Start,1737692955224,NULL
1737693671,77da0ef6622c18e6a245f2609d5fc04b,PennController,53,0,frases,NULL,Selector,classificacao,Selection,positiva,1737692973140,negativa;neutra;positiva
1737693671,77da0ef6622c18e6a245f2609d5fc04b,PennController,53,0,frases,NULL,PennController,54,_Trial_,End,1737692973143,NULL
1737693671,77da0ef6622c18e6a245f2609d5fc04b,PennController,54,0,frases,NULL,PennController,55,_Trial_,Start,1737692973145,NULL
1737693671,77da0ef6622c18e6a245f2609d5fc04b,PennController,54,0,frases,NULL,Selector,classificacao,Selection,negativa,1737692988080,negativa;neutra;positiva
1737693671,77da0ef6622c18e6a245f2609d5fc04b,PennController,54,0,frases,NULL,PennController,55,_Trial_,End,1737692988083,NULL
1737693671,77da0ef6622c18e6a245f2609d5fc04b,PennController,55,0,frases,NULL,PennController,56,_Trial_,Start,1737692988086,NULL
1737693671,77da0ef6622c18e6a245f2609d5fc04b,PennController,55,0,frases,NULL,Selector,classificacao,Selection,positiva,1737693002063,negativa;neutra;positiva
1737693671,77da0ef6622c18e6a245f2609d5fc04b,PennController,55,0,frases,NULL,PennController,56,_Trial_,End,1737693002067,NULL
1737693671,77da0ef6622c18e6a245f2609d5fc04b,PennController,56,0,frases,NULL,PennController,57,_Trial_,Start,1737693002070,NULL
1737693671,77da0ef6622c18e6a245f2609d5fc04b,PennController,56,0,frases,NULL,Selector,classificacao,Selection,neutra,1737693037802,negativa;neutra;positiva
1737693671,77da0ef6622c18e6a245f2609d5fc04b,PennController,56,0,frases,NULL,PennController,57,_Trial_,End,1737693037806,NULL
1737693671,77da0ef6622c18e6a245f2609d5fc04b,PennController,57,0,frases,NULL,PennController,58,_Trial_,Start,1737693037808,NULL
1737693671,77da0ef6622c18e6a245f2609d5fc04b,PennController,57,0,frases,NULL,Selector,classificacao,Selection,neutra,1737693052193,negativa;neutra;positiva
1737693671,77da0ef6622c18e6a245f2609d5fc04b,PennController,57,0,frases,NULL,PennController,58,_Trial_,End,1737693052196,NULL
1737693671,77da0ef6622c18e6a245f2609d5fc04b,PennController,58,0,frases,NULL,PennController,59,_Trial_,Start,1737693052198,NULL
1737693671,77da0ef6622c18e6a245f2609d5fc04b,PennController,58,0,frases,NULL,Selector,classificacao,Selection,neutra,1737693058154,negativa;neutra;positiva
1737693671,77da0ef6622c18e6a245f2609d5fc04b,PennController,58,0,frases,NULL,PennController,59,_Trial_,End,1737693058156,NULL
1737693671,77da0ef6622c18e6a245f2609d5fc04b,PennController,59,0,frases,NULL,PennController,60,_Trial_,Start,1737693058158,NULL
1737693671,77da0ef6622c18e6a245f2609d5fc04b,PennController,59,0,frases,NULL,Selector,classificacao,Selection,positiva,1737693069550,negativa;neutra;positiva
1737693671,77da0ef6622c18e6a245f2609d5fc04b,PennController,59,0,frases,NULL,PennController,60,_Trial_,End,1737693069552,NULL
1737693671,77da0ef6622c18e6a245f2609d5fc04b,PennController,60,0,frases,NULL,PennController,61,_Trial_,Start,1737693069554,NULL
1737693671,77da0ef6622c18e6a245f2609d5fc04b,PennController,60,0,frases,NULL,Selector,classificacao,Selection,negativa,1737693080641,negativa;neutra;positiva
1737693671,77da0ef6622c18e6a245f2609d5fc04b,PennController,60,0,frases,NULL,PennController,61,_Trial_,End,1737693080644,NULL
1737693671,77da0ef6622c18e6a245f2609d5fc04b,PennController,61,0,frases,NULL,PennController,62,_Trial_,Start,1737693080646,NULL
1737693671,77da0ef6622c18e6a245f2609d5fc04b,PennController,61,0,frases,NULL,Selector,classificacao,Selection,negativa,1737693088685,negativa;neutra;positiva
1737693671,77da0ef6622c18e6a245f2609d5fc04b,PennController,61,0,frases,NULL,PennController,62,_Trial_,End,1737693088687,NULL
1737693671,77da0ef6622c18e6a245f2609d5fc04b,PennController,62,0,frases,NULL,PennController,63,_Trial_,Start,1737693088689,NULL
1737693671,77da0ef6622c18e6a245f2609d5fc04b,PennController,62,0,frases,NULL,Selector,classificacao,Selection,neutra,1737693102601,negativa;neutra;positiva
1737693671,77da0ef6622c18e6a245f2609d5fc04b,PennController,62,0,frases,NULL,PennController,63,_Trial_,End,1737693102603,NULL
1737693671,77da0ef6622c18e6a245f2609d5fc04b,PennController,63,0,frases,NULL,PennController,64,_Trial_,Start,1737693102605,NULL
1737693671,77da0ef6622c18e6a245f2609d5fc04b,PennController,63,0,frases,NULL,Selector,classificacao,Selection,negativa,1737693111704,negativa;neutra;positiva
1737693671,77da0ef6622c18e6a245f2609d5fc04b,PennController,63,0,frases,NULL,PennController,64,_Trial_,End,1737693111707,NULL
1737693671,77da0ef6622c18e6a245f2609d5fc04b,PennController,64,0,frases,NULL,PennController,65,_Trial_,Start,1737693111710,NULL
1737693671,77da0ef6622c18e6a245f2609d5fc04b,PennController,64,0,frases,NULL,Selector,classificacao,Selection,negativa,1737693124405,negativa;neutra;positiva
1737693671,77da0ef6622c18e6a245f2609d5fc04b,PennController,64,0,frases,NULL,PennController,65,_Trial_,End,1737693124418,NULL
1737693671,77da0ef6622c18e6a245f2609d5fc04b,PennController,65,0,frases,NULL,PennController,66,_Trial_,Start,1737693124430,NULL
1737693671,77da0ef6622c18e6a245f2609d5fc04b,PennController,65,0,frases,NULL,Selector,classificacao,Selection,negativa,1737693127833,negativa;neutra;positiva
1737693671,77da0ef6622c18e6a245f2609d5fc04b,PennController,65,0,frases,NULL,PennController,66,_Trial_,End,1737693127836,NULL
1737693671,77da0ef6622c18e6a245f2609d5fc04b,PennController,66,0,frases,NULL,PennController,67,_Trial_,Start,1737693127839,NULL
1737693671,77da0ef6622c18e6a245f2609d5fc04b,PennController,66,0,frases,NULL,Selector,classificacao,Selection,negativa,1737693129825,negativa;neutra;positiva
1737693671,77da0ef6622c18e6a245f2609d5fc04b,PennController,66,0,frases,NULL,PennController,67,_Trial_,End,1737693129827,NULL
1737693671,77da0ef6622c18e6a245f2609d5fc04b,PennController,67,0,frases,NULL,PennController,68,_Trial_,Start,1737693129829,NULL
1737693671,77da0ef6622c18e6a245f2609d5fc04b,PennController,67,0,frases,NULL,Selector,classificacao,Selection,negativa,1737693143226,negativa;neutra;positiva
1737693671,77da0ef6622c18e6a245f2609d5fc04b,PennController,67,0,frases,NULL,PennController,68,_Trial_,End,1737693143228,NULL
1737693671,77da0ef6622c18e6a245f2609d5fc04b,PennController,68,0,frases,NULL,PennController,69,_Trial_,Start,1737693143230,NULL
1737693671,77da0ef6622c18e6a245f2609d5fc04b,PennController,68,0,frases,NULL,Selector,classificacao,Selection,negativa,1737693151497,negativa;neutra;positiva
1737693671,77da0ef6622c18e6a245f2609d5fc04b,PennController,68,0,frases,NULL,PennController,69,_Trial_,End,1737693151510,NULL
1737693671,77da0ef6622c18e6a245f2609d5fc04b,PennController,69,0,frases,NULL,PennController,70,_Trial_,Start,1737693151516,NULL
1737693671,77da0ef6622c18e6a245f2609d5fc04b,PennController,69,0,frases,NULL,Selector,classificacao,Selection,positiva,1737693169686,negativa;neutra;positiva
1737693671,77da0ef6622c18e6a245f2609d5fc04b,PennController,69,0,frases,NULL,PennController,70,_Trial_,End,1737693169688,NULL
1737693671,77da0ef6622c18e6a245f2609d5fc04b,PennController,70,0,frases,NULL,PennController,71,_Trial_,Start,1737693169690,NULL
1737693671,77da0ef6622c18e6a245f2609d5fc04b,PennController,70,0,frases,NULL,Selector,classificacao,Selection,negativa,1737693174611,negativa;neutra;positiva
1737693671,77da0ef6622c18e6a245f2609d5fc04b,PennController,70,0,frases,NULL,PennController,71,_Trial_,End,1737693174613,NULL
1737693671,77da0ef6622c18e6a245f2609d5fc04b,PennController,71,0,frases,NULL,PennController,72,_Trial_,Start,1737693174615,NULL
1737693671,77da0ef6622c18e6a245f2609d5fc04b,PennController,71,0,frases,NULL,Selector,classificacao,Selection,neutra,1737693181832,negativa;neutra;positiva
1737693671,77da0ef6622c18e6a245f2609d5fc04b,PennController,71,0,frases,NULL,PennController,72,_Trial_,End,1737693181834,NULL
1737693671,77da0ef6622c18e6a245f2609d5fc04b,PennController,72,0,frases,NULL,PennController,73,_Trial_,Start,1737693181837,NULL
1737693671,77da0ef6622c18e6a245f2609d5fc04b,PennController,72,0,frases,NULL,Selector,classificacao,Selection,positiva,1737693186028,negativa;neutra;positiva
1737693671,77da0ef6622c18e6a245f2609d5fc04b,PennController,72,0,frases,NULL,PennController,73,_Trial_,End,1737693186030,NULL
1737693671,77da0ef6622c18e6a245f2609d5fc04b,PennController,73,0,frases,NULL,PennController,74,_Trial_,Start,1737693186034,NULL
1737693671,77da0ef6622c18e6a245f2609d5fc04b,PennController,73,0,frases,NULL,Selector,classificacao,Selection,negativa,1737693224209,negativa;neutra;positiva
1737693671,77da0ef6622c18e6a245f2609d5fc04b,PennController,73,0,frases,NULL,PennController,74,_Trial_,End,1737693224212,NULL
1737693671,77da0ef6622c18e6a245f2609d5fc04b,PennController,74,0,frases,NULL,PennController,75,_Trial_,Start,1737693224215,NULL
1737693671,77da0ef6622c18e6a245f2609d5fc04b,PennController,74,0,frases,NULL,Selector,classificacao,Selection,negativa,1737693232580,negativa;neutra;positiva
1737693671,77da0ef6622c18e6a245f2609d5fc04b,PennController,74,0,frases,NULL,PennController,75,_Trial_,End,1737693232582,NULL
1737693671,77da0ef6622c18e6a245f2609d5fc04b,PennController,75,0,frases,NULL,PennController,76,_Trial_,Start,1737693232584,NULL
1737693671,77da0ef6622c18e6a245f2609d5fc04b,PennController,75,0,frases,NULL,Selector,classificacao,Selection,negativa,1737693243789,negativa;neutra;positiva
1737693671,77da0ef6622c18e6a245f2609d5fc04b,PennController,75,0,frases,NULL,PennController,76,_Trial_,End,1737693243792,NULL
1737693671,77da0ef6622c18e6a245f2609d5fc04b,PennController,76,0,frases,NULL,PennController,77,_Trial_,Start,1737693243794,NULL
1737693671,77da0ef6622c18e6a245f2609d5fc04b,PennController,76,0,frases,NULL,Selector,classificacao,Selection,neutra,1737693255068,negativa;neutra;positiva
1737693671,77da0ef6622c18e6a245f2609d5fc04b,PennController,76,0,frases,NULL,PennController,77,_Trial_,End,1737693255071,NULL
1737693671,77da0ef6622c18e6a245f2609d5fc04b,PennController,77,0,frases,NULL,PennController,78,_Trial_,Start,1737693255074,NULL
1737693671,77da0ef6622c18e6a245f2609d5fc04b,PennController,77,0,frases,NULL,Selector,classificacao,Selection,neutra,1737693259119,negativa;neutra;positiva
1737693671,77da0ef6622c18e6a245f2609d5fc04b,PennController,77,0,frases,NULL,PennController,78,_Trial_,End,1737693259121,NULL
1737693671,77da0ef6622c18e6a245f2609d5fc04b,PennController,78,0,frases,NULL,PennController,79,_Trial_,Start,1737693259123,NULL
1737693671,77da0ef6622c18e6a245f2609d5fc04b,PennController,78,0,frases,NULL,Selector,classificacao,Selection,positiva,1737693267659,negativa;neutra;positiva
1737693671,77da0ef6622c18e6a245f2609d5fc04b,PennController,78,0,frases,NULL,PennController,79,_Trial_,End,1737693267662,NULL
1737693671,77da0ef6622c18e6a245f2609d5fc04b,PennController,79,0,frases,NULL,PennController,80,_Trial_,Start,1737693267664,NULL
1737693671,77da0ef6622c18e6a245f2609d5fc04b,PennController,79,0,frases,NULL,Selector,classificacao,Selection,positiva,1737693270919,negativa;neutra;positiva
1737693671,77da0ef6622c18e6a245f2609d5fc04b,PennController,79,0,frases,NULL,PennController,80,_Trial_,End,1737693270922,NULL
1737693671,77da0ef6622c18e6a245f2609d5fc04b,PennController,80,0,frases,NULL,PennController,81,_Trial_,Start,1737693270924,NULL
1737693671,77da0ef6622c18e6a245f2609d5fc04b,PennController,80,0,frases,NULL,Selector,classificacao,Selection,neutra,1737693284160,negativa;neutra;positiva
1737693671,77da0ef6622c18e6a245f2609d5fc04b,PennController,80,0,frases,NULL,PennController,81,_Trial_,End,1737693284162,NULL
1737693671,77da0ef6622c18e6a245f2609d5fc04b,PennController,81,0,frases,NULL,PennController,82,_Trial_,Start,1737693284164,NULL
1737693671,77da0ef6622c18e6a245f2609d5fc04b,PennController,81,0,frases,NULL,Selector,classificacao,Selection,neutra,1737693293148,negativa;neutra;positiva
1737693671,77da0ef6622c18e6a245f2609d5fc04b,PennController,81,0,frases,NULL,PennController,82,_Trial_,End,1737693293153,NULL
1737693671,77da0ef6622c18e6a245f2609d5fc04b,PennController,82,0,frases,NULL,PennController,83,_Trial_,Start,1737693293156,NULL
1737693671,77da0ef6622c18e6a245f2609d5fc04b,PennController,82,0,frases,NULL,Selector,classificacao,Selection,positiva,1737693304532,negativa;neutra;positiva
1737693671,77da0ef6622c18e6a245f2609d5fc04b,PennController,82,0,frases,NULL,PennController,83,_Trial_,End,1737693304535,NULL
1737693671,77da0ef6622c18e6a245f2609d5fc04b,PennController,83,0,frases,NULL,PennController,84,_Trial_,Start,1737693304538,NULL
1737693671,77da0ef6622c18e6a245f2609d5fc04b,PennController,83,0,frases,NULL,Selector,classificacao,Selection,negativa,1737693319663,negativa;neutra;positiva
1737693671,77da0ef6622c18e6a245f2609d5fc04b,PennController,83,0,frases,NULL,PennController,84,_Trial_,End,1737693319665,NULL
1737693671,77da0ef6622c18e6a245f2609d5fc04b,PennController,84,0,frases,NULL,PennController,85,_Trial_,Start,1737693319667,NULL
1737693671,77da0ef6622c18e6a245f2609d5fc04b,PennController,84,0,frases,NULL,Selector,classificacao,Selection,negativa,1737693323296,negativa;neutra;positiva
1737693671,77da0ef6622c18e6a245f2609d5fc04b,PennController,84,0,frases,NULL,PennController,85,_Trial_,End,1737693323298,NULL
1737693671,77da0ef6622c18e6a245f2609d5fc04b,PennController,85,0,frases,NULL,PennController,86,_Trial_,Start,1737693323300,NULL
1737693671,77da0ef6622c18e6a245f2609d5fc04b,PennController,85,0,frases,NULL,Selector,classificacao,Selection,positiva,1737693327371,negativa;neutra;positiva
1737693671,77da0ef6622c18e6a245f2609d5fc04b,PennController,85,0,frases,NULL,PennController,86,_Trial_,End,1737693327373,NULL
1737693671,77da0ef6622c18e6a245f2609d5fc04b,PennController,86,0,frases,NULL,PennController,87,_Trial_,Start,1737693327374,NULL
1737693671,77da0ef6622c18e6a245f2609d5fc04b,PennController,86,0,frases,NULL,Selector,classificacao,Selection,neutra,1737693357508,negativa;neutra;positiva
1737693671,77da0ef6622c18e6a245f2609d5fc04b,PennController,86,0,frases,NULL,PennController,87,_Trial_,End,1737693357511,NULL
1737693671,77da0ef6622c18e6a245f2609d5fc04b,PennController,87,0,frases,NULL,PennController,88,_Trial_,Start,1737693357513,NULL
1737693671,77da0ef6622c18e6a245f2609d5fc04b,PennController,87,0,frases,NULL,Selector,classificacao,Selection,negativa,1737693369792,negativa;neutra;positiva
1737693671,77da0ef6622c18e6a245f2609d5fc04b,PennController,87,0,frases,NULL,PennController,88,_Trial_,End,1737693369796,NULL
1737693671,77da0ef6622c18e6a245f2609d5fc04b,PennController,88,0,frases,NULL,PennController,89,_Trial_,Start,1737693369798,NULL
1737693671,77da0ef6622c18e6a245f2609d5fc04b,PennController,88,0,frases,NULL,Selector,classificacao,Selection,negativa,1737693374000,negativa;neutra;positiva
1737693671,77da0ef6622c18e6a245f2609d5fc04b,PennController,88,0,frases,NULL,PennController,89,_Trial_,End,1737693374002,NULL
1737693671,77da0ef6622c18e6a245f2609d5fc04b,PennController,89,0,frases,NULL,PennController,90,_Trial_,Start,1737693374007,NULL
1737693671,77da0ef6622c18e6a245f2609d5fc04b,PennController,89,0,frases,NULL,Selector,classificacao,Selection,neutra,1737693379466,negativa;neutra;positiva
1737693671,77da0ef6622c18e6a245f2609d5fc04b,PennController,89,0,frases,NULL,PennController,90,_Trial_,End,1737693379470,NULL
1737693671,77da0ef6622c18e6a245f2609d5fc04b,PennController,90,0,frases,NULL,PennController,91,_Trial_,Start,1737693379473,NULL
1737693671,77da0ef6622c18e6a245f2609d5fc04b,PennController,90,0,frases,NULL,Selector,classificacao,Selection,positiva,1737693383122,negativa;neutra;positiva
1737693671,77da0ef6622c18e6a245f2609d5fc04b,PennController,90,0,frases,NULL,PennController,91,_Trial_,End,1737693383125,NULL
1737693671,77da0ef6622c18e6a245f2609d5fc04b,PennController,91,0,frases,NULL,PennController,92,_Trial_,Start,1737693383127,NULL
1737693671,77da0ef6622c18e6a245f2609d5fc04b,PennController,91,0,frases,NULL,Selector,classificacao,Selection,neutra,1737693393541,negativa;neutra;positiva
1737693671,77da0ef6622c18e6a245f2609d5fc04b,PennController,91,0,frases,NULL,PennController,92,_Trial_,End,1737693393543,NULL
1737693671,77da0ef6622c18e6a245f2609d5fc04b,PennController,92,0,frases,NULL,PennController,93,_Trial_,Start,1737693393545,NULL
1737693671,77da0ef6622c18e6a245f2609d5fc04b,PennController,92,0,frases,NULL,Selector,classificacao,Selection,negativa,1737693397015,negativa;neutra;positiva
1737693671,77da0ef6622c18e6a245f2609d5fc04b,PennController,92,0,frases,NULL,PennController,93,_Trial_,End,1737693397018,NULL
1737693671,77da0ef6622c18e6a245f2609d5fc04b,PennController,93,0,frases,NULL,PennController,94,_Trial_,Start,1737693397020,NULL
1737693671,77da0ef6622c18e6a245f2609d5fc04b,PennController,93,0,frases,NULL,Selector,classificacao,Selection,negativa,1737693409145,negativa;neutra;positiva
1737693671,77da0ef6622c18e6a245f2609d5fc04b,PennController,93,0,frases,NULL,PennController,94,_Trial_,End,1737693409147,NULL
1737693671,77da0ef6622c18e6a245f2609d5fc04b,PennController,94,0,frases,NULL,PennController,95,_Trial_,Start,1737693409150,NULL
1737693671,77da0ef6622c18e6a245f2609d5fc04b,PennController,94,0,frases,NULL,Selector,classificacao,Selection,positiva,1737693421899,negativa;neutra;positiva
1737693671,77da0ef6622c18e6a245f2609d5fc04b,PennController,94,0,frases,NULL,PennController,95,_Trial_,End,1737693421902,NULL
1737693671,77da0ef6622c18e6a245f2609d5fc04b,PennController,95,0,frases,NULL,PennController,96,_Trial_,Start,1737693421904,NULL
1737693671,77da0ef6622c18e6a245f2609d5fc04b,PennController,95,0,frases,NULL,Selector,classificacao,Selection,positiva,1737693422260,negativa;neutra;positiva
1737693671,77da0ef6622c18e6a245f2609d5fc04b,PennController,95,0,frases,NULL,PennController,96,_Trial_,End,1737693422263,NULL
1737693671,77da0ef6622c18e6a245f2609d5fc04b,PennController,96,0,frases,NULL,PennController,97,_Trial_,Start,1737693422265,NULL
1737693671,77da0ef6622c18e6a245f2609d5fc04b,PennController,96,0,frases,NULL,Selector,classificacao,Selection,negativa,1737693436402,negativa;neutra;positiva
1737693671,77da0ef6622c18e6a245f2609d5fc04b,PennController,96,0,frases,NULL,PennController,97,_Trial_,End,1737693436404,NULL
1737693671,77da0ef6622c18e6a245f2609d5fc04b,PennController,97,0,frases,NULL,PennController,98,_Trial_,Start,1737693436406,NULL
1737693671,77da0ef6622c18e6a245f2609d5fc04b,PennController,97,0,frases,NULL,Selector,classificacao,Selection,negativa,1737693441398,negativa;neutra;positiva
1737693671,77da0ef6622c18e6a245f2609d5fc04b,PennController,97,0,frases,NULL,PennController,98,_Trial_,End,1737693441401,NULL
1737693671,77da0ef6622c18e6a245f2609d5fc04b,PennController,98,0,frases,NULL,PennController,99,_Trial_,Start,1737693441404,NULL
1737693671,77da0ef6622c18e6a245f2609d5fc04b,PennController,98,0,frases,NULL,Selector,classificacao,Selection,negativa,1737693445975,negativa;neutra;positiva
1737693671,77da0ef6622c18e6a245f2609d5fc04b,PennController,98,0,frases,NULL,PennController,99,_Trial_,End,1737693445977,NULL
1737693671,77da0ef6622c18e6a245f2609d5fc04b,PennController,99,0,frases,NULL,PennController,100,_Trial_,Start,1737693445980,NULL
1737693671,77da0ef6622c18e6a245f2609d5fc04b,PennController,99,0,frases,NULL,Selector,classificacao,Selection,negativa,1737693449341,negativa;neutra;positiva
1737693671,77da0ef6622c18e6a245f2609d5fc04b,PennController,99,0,frases,NULL,PennController,100,_Trial_,End,1737693449343,NULL
1737693671,77da0ef6622c18e6a245f2609d5fc04b,PennController,100,0,frases,NULL,PennController,101,_Trial_,Start,1737693449345,NULL
1737693671,77da0ef6622c18e6a245f2609d5fc04b,PennController,100,0,frases,NULL,Selector,classificacao,Selection,negativa,1737693472242,negativa;neutra;positiva
1737693671,77da0ef6622c18e6a245f2609d5fc04b,PennController,100,0,frases,NULL,PennController,101,_Trial_,End,1737693472244,NULL
1737693671,77da0ef6622c18e6a245f2609d5fc04b,PennController,101,0,frases,NULL,PennController,102,_Trial_,Start,1737693472246,NULL
1737693671,77da0ef6622c18e6a245f2609d5fc04b,PennController,101,0,frases,NULL,Selector,classificacao,Selection,negativa,1737693482153,negativa;neutra;positiva
1737693671,77da0ef6622c18e6a245f2609d5fc04b,PennController,101,0,frases,NULL,PennController,102,_Trial_,End,1737693482157,NULL
1737693671,77da0ef6622c18e6a245f2609d5fc04b,PennController,102,0,frases,NULL,PennController,103,_Trial_,Start,1737693482159,NULL
1737693671,77da0ef6622c18e6a245f2609d5fc04b,PennController,102,0,frases,NULL,Selector,classificacao,Selection,positiva,1737693485899,negativa;neutra;positiva
1737693671,77da0ef6622c18e6a245f2609d5fc04b,PennController,102,0,frases,NULL,PennController,103,_Trial_,End,1737693485903,NULL
1737693671,77da0ef6622c18e6a245f2609d5fc04b,PennController,103,0,frases,NULL,PennController,104,_Trial_,Start,1737693485905,NULL
1737693671,77da0ef6622c18e6a245f2609d5fc04b,PennController,103,0,frases,NULL,Selector,classificacao,Selection,neutra,1737693498299,negativa;neutra;positiva
1737693671,77da0ef6622c18e6a245f2609d5fc04b,PennController,103,0,frases,NULL,PennController,104,_Trial_,End,1737693498302,NULL
1737693671,77da0ef6622c18e6a245f2609d5fc04b,PennController,104,0,frases,NULL,PennController,105,_Trial_,Start,1737693498304,NULL
1737693671,77da0ef6622c18e6a245f2609d5fc04b,PennController,104,0,frases,NULL,Selector,classificacao,Selection,neutra,1737693506469,negativa;neutra;positiva
1737693671,77da0ef6622c18e6a245f2609d5fc04b,PennController,104,0,frases,NULL,PennController,105,_Trial_,End,1737693506471,NULL
1737693671,77da0ef6622c18e6a245f2609d5fc04b,PennController,105,0,frases,NULL,PennController,106,_Trial_,Start,1737693506473,NULL
1737693671,77da0ef6622c18e6a245f2609d5fc04b,PennController,105,0,frases,NULL,Selector,classificacao,Selection,negativa,1737693520526,negativa;neutra;positiva
1737693671,77da0ef6622c18e6a245f2609d5fc04b,PennController,105,0,frases,NULL,PennController,106,_Trial_,End,1737693520528,NULL
1737693671,77da0ef6622c18e6a245f2609d5fc04b,PennController,106,0,frases,NULL,PennController,107,_Trial_,Start,1737693520531,NULL
1737693671,77da0ef6622c18e6a245f2609d5fc04b,PennController,106,0,frases,NULL,Selector,classificacao,Selection,positiva,1737693534431,negativa;neutra;positiva
1737693671,77da0ef6622c18e6a245f2609d5fc04b,PennController,106,0,frases,NULL,PennController,107,_Trial_,End,1737693534434,NULL
1737693671,77da0ef6622c18e6a245f2609d5fc04b,PennController,107,0,frases,NULL,PennController,108,_Trial_,Start,1737693534436,NULL
1737693671,77da0ef6622c18e6a245f2609d5fc04b,PennController,107,0,frases,NULL,Selector,classificacao,Selection,neutra,1737693551678,negativa;neutra;positiva
1737693671,77da0ef6622c18e6a245f2609d5fc04b,PennController,107,0,frases,NULL,PennController,108,_Trial_,End,1737693551682,NULL
1737693671,77da0ef6622c18e6a245f2609d5fc04b,PennController,108,0,frases,NULL,PennController,109,_Trial_,Start,1737693551684,NULL
1737693671,77da0ef6622c18e6a245f2609d5fc04b,PennController,108,0,frases,NULL,Selector,classificacao,Selection,neutra,1737693556378,negativa;neutra;positiva
1737693671,77da0ef6622c18e6a245f2609d5fc04b,PennController,108,0,frases,NULL,PennController,109,_Trial_,End,1737693556381,NULL
1737693671,77da0ef6622c18e6a245f2609d5fc04b,PennController,109,0,frases,NULL,PennController,110,_Trial_,Start,1737693556383,NULL
1737693671,77da0ef6622c18e6a245f2609d5fc04b,PennController,109,0,frases,NULL,Selector,classificacao,Selection,neutra,1737693568709,negativa;neutra;positiva
1737693671,77da0ef6622c18e6a245f2609d5fc04b,PennController,109,0,frases,NULL,PennController,110,_Trial_,End,1737693568711,NULL
1737693671,77da0ef6622c18e6a245f2609d5fc04b,PennController,110,0,frases,NULL,PennController,111,_Trial_,Start,1737693568713,NULL
1737693671,77da0ef6622c18e6a245f2609d5fc04b,PennController,110,0,frases,NULL,Selector,classificacao,Selection,positiva,1737693575785,negativa;neutra;positiva
1737693671,77da0ef6622c18e6a245f2609d5fc04b,PennController,110,0,frases,NULL,PennController,111,_Trial_,End,1737693575787,NULL
1737693671,77da0ef6622c18e6a245f2609d5fc04b,PennController,111,0,frases,NULL,PennController,112,_Trial_,Start,1737693575789,NULL
1737693671,77da0ef6622c18e6a245f2609d5fc04b,PennController,111,0,frases,NULL,Selector,classificacao,Selection,negativa,1737693592793,negativa;neutra;positiva
1737693671,77da0ef6622c18e6a245f2609d5fc04b,PennController,111,0,frases,NULL,PennController,112,_Trial_,End,1737693592796,NULL
1737693671,77da0ef6622c18e6a245f2609d5fc04b,PennController,112,0,frases,NULL,PennController,113,_Trial_,Start,1737693592798,NULL
1737693671,77da0ef6622c18e6a245f2609d5fc04b,PennController,112,0,frases,NULL,Selector,classificacao,Selection,positiva,1737693612718,negativa;neutra;positiva
1737693671,77da0ef6622c18e6a245f2609d5fc04b,PennController,112,0,frases,NULL,PennController,113,_Trial_,End,1737693612721,NULL
1737693671,77da0ef6622c18e6a245f2609d5fc04b,PennController,113,0,frases,NULL,PennController,114,_Trial_,Start,1737693612723,NULL
1737693671,77da0ef6622c18e6a245f2609d5fc04b,PennController,113,0,frases,NULL,Selector,classificacao,Selection,neutra,1737693620737,negativa;neutra;positiva
1737693671,77da0ef6622c18e6a245f2609d5fc04b,PennController,113,0,frases,NULL,PennController,114,_Trial_,End,1737693620739,NULL
1737693671,77da0ef6622c18e6a245f2609d5fc04b,PennController,114,0,frases,NULL,PennController,115,_Trial_,Start,1737693620744,NULL
1737693671,77da0ef6622c18e6a245f2609d5fc04b,PennController,114,0,frases,NULL,Selector,classificacao,Selection,positiva,1737693627388,negativa;neutra;positiva
1737693671,77da0ef6622c18e6a245f2609d5fc04b,PennController,114,0,frases,NULL,PennController,115,_Trial_,End,1737693627390,NULL
1737693671,77da0ef6622c18e6a245f2609d5fc04b,PennController,115,0,frases,NULL,PennController,116,_Trial_,Start,1737693627393,NULL
1737693671,77da0ef6622c18e6a245f2609d5fc04b,PennController,115,0,frases,NULL,Selector,classificacao,Selection,positiva,1737693639254,negativa;neutra;positiva
1737693671,77da0ef6622c18e6a245f2609d5fc04b,PennController,115,0,frases,NULL,PennController,116,_Trial_,End,1737693639258,NULL
1737693671,77da0ef6622c18e6a245f2609d5fc04b,PennController,116,0,frases,NULL,PennController,117,_Trial_,Start,1737693639260,NULL
1737693671,77da0ef6622c18e6a245f2609d5fc04b,PennController,116,0,frases,NULL,Selector,classificacao,Selection,neutra,1737693646467,negativa;neutra;positiva
1737693671,77da0ef6622c18e6a245f2609d5fc04b,PennController,116,0,frases,NULL,PennController,117,_Trial_,End,1737693646471,NULL
1737693671,77da0ef6622c18e6a245f2609d5fc04b,PennController,117,0,frases,NULL,PennController,118,_Trial_,Start,1737693646473,NULL
1737693671,77da0ef6622c18e6a245f2609d5fc04b,PennController,117,0,frases,NULL,Selector,classificacao,Selection,positiva,1737693659956,negativa;neutra;positiva
1737693671,77da0ef6622c18e6a245f2609d5fc04b,PennController,117,0,frases,NULL,PennController,118,_Trial_,End,1737693659959,NULL
1737693671,77da0ef6622c18e6a245f2609d5fc04b,PennController,118,0,frases,NULL,PennController,119,_Trial_,Start,1737693659961,NULL
1737693671,77da0ef6622c18e6a245f2609d5fc04b,PennController,118,0,frases,NULL,Selector,classificacao,Selection,positiva,1737693669944,negativa;neutra;positiva
1737693671,77da0ef6622c18e6a245f2609d5fc04b,PennController,118,0,frases,NULL,PennController,119,_Trial_,End,1737693669948,NULL
1737693671,77da0ef6622c18e6a245f2609d5fc04b,PennController,119,0,agradecimento,NULL,PennController,4,_Trial_,Start,1737693669950,NULL
1737693671,77da0ef6622c18e6a245f2609d5fc04b,PennController,119,0,agradecimento,NULL,PennController,4,_Trial_,End,1737693673795,NULL
#
# Results on Thu, 30 Jan 2025 13:47:37 GMT
# USER AGENT: Mozilla/5.0 (Windows NT 10.0; Win64; x64) AppleWebKit/537.36 (KHTML, like Gecko) Chrome/132.0.0.0 Safari/537.36
# Design number was non-random = 2
#
# Columns below this comment are as follows:
# 1. Results reception time.
# 2. MD5 hash of participant's IP address.
# 3. Controller name.
# 4. Order number of item.
# 5. Inner element number.
# 6. Label.
# 7. Latin Square Group.
# 8. PennElementType.
# 9. PennElementName.
# 10. Parameter.
# 11. Value.
# 12. EventTime.
# 13. Comments.
1738244857,79d2f0d2275aacd4e4e71a607a16f228,PennController,0,0,TCLE,NULL,PennController,0,_Trial_,Start,1738243828648,NULL
1738244857,79d2f0d2275aacd4e4e71a607a16f228,PennController,0,0,TCLE,NULL,PennController,0,_Trial_,End,1738243852465,NULL
1738244857,79d2f0d2275aacd4e4e71a607a16f228,PennController,3,0,instrucoes,NULL,PennController,3,_Trial_,Start,1738243852469,NULL
1738244857,79d2f0d2275aacd4e4e71a607a16f228,PennController,3,0,instrucoes,NULL,PennController,3,_Trial_,End,1738243853634,NULL
1738244857,79d2f0d2275aacd4e4e71a607a16f228,PennController,1,0,genero,NULL,PennController,1,_Trial_,Start,1738243853636,NULL
1738244857,79d2f0d2275aacd4e4e71a607a16f228,PennController,1,0,genero,NULL,DropDown,selecionaGenero,Selected,Feminino,1738243855717,1
1738244857,79d2f0d2275aacd4e4e71a607a16f228,PennController,1,0,genero,NULL,PennController,1,_Trial_,End,1738243856576,NULL
1738244857,79d2f0d2275aacd4e4e71a607a16f228,PennController,4,0,frases,NULL,PennController,5,_Trial_,Start,1738243856578,NULL
1738244857,79d2f0d2275aacd4e4e71a607a16f228,PennController,4,0,frases,NULL,Selector,classificacao,Selection,negativa,1738243862364,negativa;neutra;positiva
1738244857,79d2f0d2275aacd4e4e71a607a16f228,PennController,4,0,frases,NULL,PennController,5,_Trial_,End,1738243862366,NULL
1738244857,79d2f0d2275aacd4e4e71a607a16f228,PennController,5,0,frases,NULL,PennController,6,_Trial_,Start,1738243862368,NULL
1738244857,79d2f0d2275aacd4e4e71a607a16f228,PennController,5,0,frases,NULL,Selector,classificacao,Selection,negativa,1738243868844,negativa;neutra;positiva
1738244857,79d2f0d2275aacd4e4e71a607a16f228,PennController,5,0,frases,NULL,PennController,6,_Trial_,End,1738243868845,NULL
1738244857,79d2f0d2275aacd4e4e71a607a16f228,PennController,6,0,frases,NULL,PennController,7,_Trial_,Start,1738243868846,NULL
1738244857,79d2f0d2275aacd4e4e71a607a16f228,PennController,6,0,frases,NULL,Selector,classificacao,Selection,neutra,1738243898519,negativa;neutra;positiva
