#
# Results on Thu, 16 Jan 2025 14:58:36 GMT
# USER AGENT: Mozilla/5.0 (Windows NT 10.0; Win64; x64; rv:134.0) Gecko/20100101 Firefox/134.0
# Design number was non-random = 0
#
# Columns below this comment are as follows:
# 1. Results reception time.
# 2. MD5 hash of participant's IP address.
# 3. Controller name.
# 4. Order number of item.
# 5. Inner element number.
# 6. Label.
# 7. Latin Square Group.
# 8. PennElementType.
# 9. PennElementName.
# 10. Parameter.
# 11. Value.
# 12. EventTime.
# 13. Comments.
1737039516,bc2584302fffead698e1809107a60040,PennController,0,0,TCLE,NULL,PennController,0,_Trial_,Start,1737033199489,NULL
1737039516,bc2584302fffead698e1809107a60040,PennController,0,0,TCLE,NULL,PennController,0,_Trial_,End,1737033529988,NULL
1737039516,bc2584302fffead698e1809107a60040,PennController,3,0,instrucoes,NULL,PennController,3,_Trial_,Start,1737033529992,NULL
1737039516,bc2584302fffead698e1809107a60040,PennController,3,0,instrucoes,NULL,PennController,3,_Trial_,End,1737033586241,NULL
1737039516,bc2584302fffead698e1809107a60040,PennController,1,0,genero,NULL,PennController,1,_Trial_,Start,1737033586244,NULL
1737039516,bc2584302fffead698e1809107a60040,PennController,1,0,genero,NULL,DropDown,selecionaGenero,Selected,Masculino,1737033588518,0
1737039516,bc2584302fffead698e1809107a60040,PennController,1,0,genero,NULL,PennController,1,_Trial_,End,1737033591210,NULL
1737039516,bc2584302fffead698e1809107a60040,PennController,4,0,frases,NULL,PennController,5,_Trial_,Start,1737033591211,NULL
1737039516,bc2584302fffead698e1809107a60040,PennController,4,0,frases,NULL,Selector,classificacao,Selection,positiva,1737033890414,negativa;neutra;positiva
1737039516,bc2584302fffead698e1809107a60040,PennController,4,0,frases,NULL,PennController,5,_Trial_,End,1737033890415,NULL
1737039516,bc2584302fffead698e1809107a60040,PennController,5,0,frases,NULL,PennController,6,_Trial_,Start,1737033890416,NULL
1737039516,bc2584302fffead698e1809107a60040,PennController,5,0,frases,NULL,Selector,classificacao,Selection,positiva,1737033901887,negativa;neutra;positiva
1737039516,bc2584302fffead698e1809107a60040,PennController,5,0,frases,NULL,PennController,6,_Trial_,End,1737033901888,NULL
1737039516,bc2584302fffead698e1809107a60040,PennController,6,0,frases,NULL,PennController,7,_Trial_,Start,1737033901888,NULL
1737039516,bc2584302fffead698e1809107a60040,PennController,6,0,frases,NULL,Selector,classificacao,Selection,negativa,1737033918477,negativa;neutra;positiva
1737039516,bc2584302fffead698e1809107a60040,PennController,6,0,frases,NULL,PennController,7,_Trial_,End,1737033918478,NULL
1737039516,bc2584302fffead698e1809107a60040,PennController,7,0,frases,NULL,PennController,8,_Trial_,Start,1737033918479,NULL
1737039516,bc2584302fffead698e1809107a60040,PennController,7,0,frases,NULL,Selector,classificacao,Selection,neutra,1737033940644,negativa;neutra;positiva
1737039516,bc2584302fffead698e1809107a60040,PennController,7,0,frases,NULL,PennController,8,_Trial_,End,1737033940646,NULL
1737039516,bc2584302fffead698e1809107a60040,PennController,8,0,frases,NULL,PennController,9,_Trial_,Start,1737033940646,NULL
1737039516,bc2584302fffead698e1809107a60040,PennController,8,0,frases,NULL,Selector,classificacao,Selection,positiva,1737033946364,negativa;neutra;positiva
1737039516,bc2584302fffead698e1809107a60040,PennController,8,0,frases,NULL,PennController,9,_Trial_,End,1737033946365,NULL
1737039516,bc2584302fffead698e1809107a60040,PennController,9,0,frases,NULL,PennController,10,_Trial_,Start,1737033946367,NULL
1737039516,bc2584302fffead698e1809107a60040,PennController,9,0,frases,NULL,Selector,classificacao,Selection,positiva,1737033954406,negativa;neutra;positiva
1737039516,bc2584302fffead698e1809107a60040,PennController,9,0,frases,NULL,PennController,10,_Trial_,End,1737033954407,NULL
1737039516,bc2584302fffead698e1809107a60040,PennController,10,0,frases,NULL,PennController,11,_Trial_,Start,1737033954408,NULL
1737039516,bc2584302fffead698e1809107a60040,PennController,10,0,frases,NULL,Selector,classificacao,Selection,positiva,1737033957156,negativa;neutra;positiva
1737039516,bc2584302fffead698e1809107a60040,PennController,10,0,frases,NULL,PennController,11,_Trial_,End,1737033957157,NULL
1737039516,bc2584302fffead698e1809107a60040,PennController,11,0,frases,NULL,PennController,12,_Trial_,Start,1737033957158,NULL
1737039516,bc2584302fffead698e1809107a60040,PennController,11,0,frases,NULL,Selector,classificacao,Selection,positiva,1737033989700,negativa;neutra;positiva
1737039516,bc2584302fffead698e1809107a60040,PennController,11,0,frases,NULL,PennController,12,_Trial_,End,1737033989702,NULL
1737039516,bc2584302fffead698e1809107a60040,PennController,12,0,frases,NULL,PennController,13,_Trial_,Start,1737033989702,NULL
1737039516,bc2584302fffead698e1809107a60040,PennController,12,0,frases,NULL,Selector,classificacao,Selection,neutra,1737034000572,negativa;neutra;positiva
1737039516,bc2584302fffead698e1809107a60040,PennController,12,0,frases,NULL,PennController,13,_Trial_,End,1737034000573,NULL
1737039516,bc2584302fffead698e1809107a60040,PennController,13,0,frases,NULL,PennController,14,_Trial_,Start,1737034000574,NULL
1737039516,bc2584302fffead698e1809107a60040,PennController,13,0,frases,NULL,Selector,classificacao,Selection,negativa,1737034004012,negativa;neutra;positiva
1737039516,bc2584302fffead698e1809107a60040,PennController,13,0,frases,NULL,PennController,14,_Trial_,End,1737034004013,NULL
1737039516,bc2584302fffead698e1809107a60040,PennController,14,0,frases,NULL,PennController,15,_Trial_,Start,1737034004013,NULL
1737039516,bc2584302fffead698e1809107a60040,PennController,14,0,frases,NULL,Selector,classificacao,Selection,positiva,1737034009533,negativa;neutra;positiva
1737039516,bc2584302fffead698e1809107a60040,PennController,14,0,frases,NULL,PennController,15,_Trial_,End,1737034009534,NULL
1737039516,bc2584302fffead698e1809107a60040,PennController,15,0,frases,NULL,PennController,16,_Trial_,Start,1737034009534,NULL
1737039516,bc2584302fffead698e1809107a60040,PennController,15,0,frases,NULL,Selector,classificacao,Selection,neutra,1737034013204,negativa;neutra;positiva
1737039516,bc2584302fffead698e1809107a60040,PennController,15,0,frases,NULL,PennController,16,_Trial_,End,1737034013205,NULL
1737039516,bc2584302fffead698e1809107a60040,PennController,16,0,frases,NULL,PennController,17,_Trial_,Start,1737034013206,NULL
1737039516,bc2584302fffead698e1809107a60040,PennController,16,0,frases,NULL,Selector,classificacao,Selection,positiva,1737034017284,negativa;neutra;positiva
1737039516,bc2584302fffead698e1809107a60040,PennController,16,0,frases,NULL,PennController,17,_Trial_,End,1737034017285,NULL
1737039516,bc2584302fffead698e1809107a60040,PennController,17,0,frases,NULL,PennController,18,_Trial_,Start,1737034017286,NULL
1737039516,bc2584302fffead698e1809107a60040,PennController,17,0,frases,NULL,Selector,classificacao,Selection,negativa,1737034026108,negativa;neutra;positiva
1737039516,bc2584302fffead698e1809107a60040,PennController,17,0,frases,NULL,PennController,18,_Trial_,End,1737034026109,NULL
1737039516,bc2584302fffead698e1809107a60040,PennController,18,0,frases,NULL,PennController,19,_Trial_,Start,1737034026109,NULL
1737039516,bc2584302fffead698e1809107a60040,PennController,18,0,frases,NULL,Selector,classificacao,Selection,positiva,1737034031628,negativa;neutra;positiva
1737039516,bc2584302fffead698e1809107a60040,PennController,18,0,frases,NULL,PennController,19,_Trial_,End,1737034031629,NULL
1737039516,bc2584302fffead698e1809107a60040,PennController,19,0,frases,NULL,PennController,20,_Trial_,Start,1737034031630,NULL
1737039516,bc2584302fffead698e1809107a60040,PennController,19,0,frases,NULL,Selector,classificacao,Selection,negativa,1737034034532,negativa;neutra;positiva
1737039516,bc2584302fffead698e1809107a60040,PennController,19,0,frases,NULL,PennController,20,_Trial_,End,1737034034533,NULL
1737039516,bc2584302fffead698e1809107a60040,PennController,20,0,frases,NULL,PennController,21,_Trial_,Start,1737034034534,NULL
1737039516,bc2584302fffead698e1809107a60040,PennController,20,0,frases,NULL,Selector,classificacao,Selection,neutra,1737034039516,negativa;neutra;positiva
1737039516,bc2584302fffead698e1809107a60040,PennController,20,0,frases,NULL,PennController,21,_Trial_,End,1737034039517,NULL
1737039516,bc2584302fffead698e1809107a60040,PennController,21,0,frases,NULL,PennController,22,_Trial_,Start,1737034039518,NULL
1737039516,bc2584302fffead698e1809107a60040,PennController,21,0,frases,NULL,Selector,classificacao,Selection,negativa,1737034050796,negativa;neutra;positiva
1737039516,bc2584302fffead698e1809107a60040,PennController,21,0,frases,NULL,PennController,22,_Trial_,End,1737034050797,NULL
1737039516,bc2584302fffead698e1809107a60040,PennController,22,0,frases,NULL,PennController,23,_Trial_,Start,1737034050797,NULL
1737039516,bc2584302fffead698e1809107a60040,PennController,22,0,frases,NULL,Selector,classificacao,Selection,negativa,1737034055492,negativa;neutra;positiva
1737039516,bc2584302fffead698e1809107a60040,PennController,22,0,frases,NULL,PennController,23,_Trial_,End,1737034055493,NULL
1737039516,bc2584302fffead698e1809107a60040,PennController,23,0,frases,NULL,PennController,24,_Trial_,Start,1737034055493,NULL
1737039516,bc2584302fffead698e1809107a60040,PennController,23,0,frases,NULL,Selector,classificacao,Selection,positiva,1737034062348,negativa;neutra;positiva
1737039516,bc2584302fffead698e1809107a60040,PennController,23,0,frases,NULL,PennController,24,_Trial_,End,1737034062349,NULL
1737039516,bc2584302fffead698e1809107a60040,PennController,24,0,frases,NULL,PennController,25,_Trial_,Start,1737034062350,NULL
1737039516,bc2584302fffead698e1809107a60040,PennController,24,0,frases,NULL,Selector,classificacao,Selection,negativa,1737034064492,negativa;neutra;positiva
1737039516,bc2584302fffead698e1809107a60040,PennController,24,0,frases,NULL,PennController,25,_Trial_,End,1737034064493,NULL
1737039516,bc2584302fffead698e1809107a60040,PennController,25,0,frases,NULL,PennController,26,_Trial_,Start,1737034064493,NULL
1737039516,bc2584302fffead698e1809107a60040,PennController,25,0,frases,NULL,Selector,classificacao,Selection,positiva,1737034070891,negativa;neutra;positiva
1737039516,bc2584302fffead698e1809107a60040,PennController,25,0,frases,NULL,PennController,26,_Trial_,End,1737034070892,NULL
1737039516,bc2584302fffead698e1809107a60040,PennController,26,0,frases,NULL,PennController,27,_Trial_,Start,1737034070892,NULL
1737039516,bc2584302fffead698e1809107a60040,PennController,26,0,frases,NULL,Selector,classificacao,Selection,negativa,1737034079075,negativa;neutra;positiva
1737039516,bc2584302fffead698e1809107a60040,PennController,26,0,frases,NULL,PennController,27,_Trial_,End,1737034079076,NULL
1737039516,bc2584302fffead698e1809107a60040,PennController,27,0,frases,NULL,PennController,28,_Trial_,Start,1737034079077,NULL
1737039516,bc2584302fffead698e1809107a60040,PennController,27,0,frases,NULL,Selector,classificacao,Selection,positiva,1737034082782,negativa;neutra;positiva
1737039516,bc2584302fffead698e1809107a60040,PennController,27,0,frases,NULL,PennController,28,_Trial_,End,1737034082782,NULL
1737039516,bc2584302fffead698e1809107a60040,PennController,28,0,frases,NULL,PennController,29,_Trial_,Start,1737034082783,NULL
1737039516,bc2584302fffead698e1809107a60040,PennController,28,0,frases,NULL,Selector,classificacao,Selection,negativa,1737034088035,negativa;neutra;positiva
1737039516,bc2584302fffead698e1809107a60040,PennController,28,0,frases,NULL,PennController,29,_Trial_,End,1737034088036,NULL
1737039516,bc2584302fffead698e1809107a60040,PennController,29,0,frases,NULL,PennController,30,_Trial_,Start,1737034088037,NULL
1737039516,bc2584302fffead698e1809107a60040,PennController,29,0,frases,NULL,Selector,classificacao,Selection,neutra,1737034092172,negativa;neutra;positiva
1737039516,bc2584302fffead698e1809107a60040,PennController,29,0,frases,NULL,PennController,30,_Trial_,End,1737034092173,NULL
1737039516,bc2584302fffead698e1809107a60040,PennController,30,0,frases,NULL,PennController,31,_Trial_,Start,1737034092174,NULL
1737039516,bc2584302fffead698e1809107a60040,PennController,30,0,frases,NULL,Selector,classificacao,Selection,positiva,1737034097763,negativa;neutra;positiva
1737039516,bc2584302fffead698e1809107a60040,PennController,30,0,frases,NULL,PennController,31,_Trial_,End,1737034097764,NULL
1737039516,bc2584302fffead698e1809107a60040,PennController,31,0,frases,NULL,PennController,32,_Trial_,Start,1737034097764,NULL
1737039516,bc2584302fffead698e1809107a60040,PennController,31,0,frases,NULL,Selector,classificacao,Selection,negativa,1737034105325,negativa;neutra;positiva
1737039516,bc2584302fffead698e1809107a60040,PennController,31,0,frases,NULL,PennController,32,_Trial_,End,1737034105325,NULL
1737039516,bc2584302fffead698e1809107a60040,PennController,32,0,frases,NULL,PennController,33,_Trial_,Start,1737034105326,NULL
1737039516,bc2584302fffead698e1809107a60040,PennController,32,0,frases,NULL,Selector,classificacao,Selection,positiva,1737036022389,negativa;neutra;positiva
1737039516,bc2584302fffead698e1809107a60040,PennController,32,0,frases,NULL,PennController,33,_Trial_,End,1737036022392,NULL
1737039516,bc2584302fffead698e1809107a60040,PennController,33,0,frases,NULL,PennController,34,_Trial_,Start,1737036022394,NULL
1737039516,bc2584302fffead698e1809107a60040,PennController,33,0,frases,NULL,Selector,classificacao,Selection,negativa,1737036028869,negativa;neutra;positiva
1737039516,bc2584302fffead698e1809107a60040,PennController,33,0,frases,NULL,PennController,34,_Trial_,End,1737036028870,NULL
1737039516,bc2584302fffead698e1809107a60040,PennController,34,0,frases,NULL,PennController,35,_Trial_,Start,1737036028871,NULL
1737039516,bc2584302fffead698e1809107a60040,PennController,34,0,frases,NULL,Selector,classificacao,Selection,positiva,1737036095901,negativa;neutra;positiva
1737039516,bc2584302fffead698e1809107a60040,PennController,34,0,frases,NULL,PennController,35,_Trial_,End,1737036095902,NULL
1737039516,bc2584302fffead698e1809107a60040,PennController,35,0,frases,NULL,PennController,36,_Trial_,Start,1737036095902,NULL
1737039516,bc2584302fffead698e1809107a60040,PennController,35,0,frases,NULL,Selector,classificacao,Selection,positiva,1737036101374,negativa;neutra;positiva
1737039516,bc2584302fffead698e1809107a60040,PennController,35,0,frases,NULL,PennController,36,_Trial_,End,1737036101375,NULL
1737039516,bc2584302fffead698e1809107a60040,PennController,36,0,frases,NULL,PennController,37,_Trial_,Start,1737036101376,NULL
1737039516,bc2584302fffead698e1809107a60040,PennController,36,0,frases,NULL,Selector,classificacao,Selection,positiva,1737036107470,negativa;neutra;positiva
1737039516,bc2584302fffead698e1809107a60040,PennController,36,0,frases,NULL,PennController,37,_Trial_,End,1737036107470,NULL
1737039516,bc2584302fffead698e1809107a60040,PennController,37,0,frases,NULL,PennController,38,_Trial_,Start,1737036107471,NULL
1737039516,bc2584302fffead698e1809107a60040,PennController,37,0,frases,NULL,Selector,classificacao,Selection,positiva,1737036109998,negativa;neutra;positiva
1737039516,bc2584302fffead698e1809107a60040,PennController,37,0,frases,NULL,PennController,38,_Trial_,End,1737036109998,NULL
1737039516,bc2584302fffead698e1809107a60040,PennController,38,0,frases,NULL,PennController,39,_Trial_,Start,1737036110000,NULL
1737039516,bc2584302fffead698e1809107a60040,PennController,38,0,frases,NULL,Selector,classificacao,Selection,negativa,1737036114749,negativa;neutra;positiva
1737039516,bc2584302fffead698e1809107a60040,PennController,38,0,frases,NULL,PennController,39,_Trial_,End,1737036114750,NULL
1737039516,bc2584302fffead698e1809107a60040,PennController,39,0,frases,NULL,PennController,40,_Trial_,Start,1737036114751,NULL
1737039516,bc2584302fffead698e1809107a60040,PennController,39,0,frases,NULL,Selector,classificacao,Selection,positiva,1737036129245,negativa;neutra;positiva
1737039516,bc2584302fffead698e1809107a60040,PennController,39,0,frases,NULL,PennController,40,_Trial_,End,1737036129245,NULL
1737039516,bc2584302fffead698e1809107a60040,PennController,40,0,frases,NULL,PennController,41,_Trial_,Start,1737036129247,NULL
1737039516,bc2584302fffead698e1809107a60040,PennController,40,0,frases,NULL,Selector,classificacao,Selection,negativa,1737036131093,negativa;neutra;positiva
1737039516,bc2584302fffead698e1809107a60040,PennController,40,0,frases,NULL,PennController,41,_Trial_,End,1737036131094,NULL
1737039516,bc2584302fffead698e1809107a60040,PennController,41,0,frases,NULL,PennController,42,_Trial_,Start,1737036131095,NULL
1737039516,bc2584302fffead698e1809107a60040,PennController,41,0,frases,NULL,Selector,classificacao,Selection,neutra,1737036134638,negativa;neutra;positiva
1737039516,bc2584302fffead698e1809107a60040,PennController,41,0,frases,NULL,PennController,42,_Trial_,End,1737036134638,NULL
1737039516,bc2584302fffead698e1809107a60040,PennController,42,0,frases,NULL,PennController,43,_Trial_,Start,1737036134639,NULL
1737039516,bc2584302fffead698e1809107a60040,PennController,42,0,frases,NULL,Selector,classificacao,Selection,positiva,1737036145493,negativa;neutra;positiva
1737039516,bc2584302fffead698e1809107a60040,PennController,42,0,frases,NULL,PennController,43,_Trial_,End,1737036145494,NULL
1737039516,bc2584302fffead698e1809107a60040,PennController,43,0,frases,NULL,PennController,44,_Trial_,Start,1737036145495,NULL
1737039516,bc2584302fffead698e1809107a60040,PennController,43,0,frases,NULL,Selector,classificacao,Selection,negativa,1737036148773,negativa;neutra;positiva
1737039516,bc2584302fffead698e1809107a60040,PennController,43,0,frases,NULL,PennController,44,_Trial_,End,1737036148774,NULL
1737039516,bc2584302fffead698e1809107a60040,PennController,44,0,frases,NULL,PennController,45,_Trial_,Start,1737036148775,NULL
1737039516,bc2584302fffead698e1809107a60040,PennController,44,0,frases,NULL,Selector,classificacao,Selection,positiva,1737036152332,negativa;neutra;positiva
1737039516,bc2584302fffead698e1809107a60040,PennController,44,0,frases,NULL,PennController,45,_Trial_,End,1737036152332,NULL
1737039516,bc2584302fffead698e1809107a60040,PennController,45,0,frases,NULL,PennController,46,_Trial_,Start,1737036152333,NULL
1737039516,bc2584302fffead698e1809107a60040,PennController,45,0,frases,NULL,Selector,classificacao,Selection,negativa,1737036167229,negativa;neutra;positiva
1737039516,bc2584302fffead698e1809107a60040,PennController,45,0,frases,NULL,PennController,46,_Trial_,End,1737036167230,NULL
1737039516,bc2584302fffead698e1809107a60040,PennController,46,0,frases,NULL,PennController,47,_Trial_,Start,1737036167231,NULL
1737039516,bc2584302fffead698e1809107a60040,PennController,46,0,frases,NULL,Selector,classificacao,Selection,positiva,1737036171414,negativa;neutra;positiva
1737039516,bc2584302fffead698e1809107a60040,PennController,46,0,frases,NULL,PennController,47,_Trial_,End,1737036171415,NULL
1737039516,bc2584302fffead698e1809107a60040,PennController,47,0,frases,NULL,PennController,48,_Trial_,Start,1737036171415,NULL
1737039516,bc2584302fffead698e1809107a60040,PennController,47,0,frases,NULL,Selector,classificacao,Selection,positiva,1737036181621,negativa;neutra;positiva
1737039516,bc2584302fffead698e1809107a60040,PennController,47,0,frases,NULL,PennController,48,_Trial_,End,1737036181622,NULL
1737039516,bc2584302fffead698e1809107a60040,PennController,48,0,frases,NULL,PennController,49,_Trial_,Start,1737036181622,NULL
1737039516,bc2584302fffead698e1809107a60040,PennController,48,0,frases,NULL,Selector,classificacao,Selection,positiva,1737036192492,negativa;neutra;positiva
1737039516,bc2584302fffead698e1809107a60040,PennController,48,0,frases,NULL,PennController,49,_Trial_,End,1737036192492,NULL
1737039516,bc2584302fffead698e1809107a60040,PennController,49,0,frases,NULL,PennController,50,_Trial_,Start,1737036192493,NULL
1737039516,bc2584302fffead698e1809107a60040,PennController,49,0,frases,NULL,Selector,classificacao,Selection,neutra,1737036199005,negativa;neutra;positiva
1737039516,bc2584302fffead698e1809107a60040,PennController,49,0,frases,NULL,PennController,50,_Trial_,End,1737036199006,NULL
1737039516,bc2584302fffead698e1809107a60040,PennController,50,0,frases,NULL,PennController,51,_Trial_,Start,1737036199007,NULL
1737039516,bc2584302fffead698e1809107a60040,PennController,50,0,frases,NULL,Selector,classificacao,Selection,positiva,1737036206141,negativa;neutra;positiva
1737039516,bc2584302fffead698e1809107a60040,PennController,50,0,frases,NULL,PennController,51,_Trial_,End,1737036206142,NULL
1737039516,bc2584302fffead698e1809107a60040,PennController,51,0,frases,NULL,PennController,52,_Trial_,Start,1737036206143,NULL
1737039516,bc2584302fffead698e1809107a60040,PennController,51,0,frases,NULL,Selector,classificacao,Selection,negativa,1737036211997,negativa;neutra;positiva
1737039516,bc2584302fffead698e1809107a60040,PennController,51,0,frases,NULL,PennController,52,_Trial_,End,1737036211998,NULL
1737039516,bc2584302fffead698e1809107a60040,PennController,52,0,frases,NULL,PennController,53,_Trial_,Start,1737036211999,NULL
1737039516,bc2584302fffead698e1809107a60040,PennController,52,0,frases,NULL,Selector,classificacao,Selection,negativa,1737036220076,negativa;neutra;positiva
1737039516,bc2584302fffead698e1809107a60040,PennController,52,0,frases,NULL,PennController,53,_Trial_,End,1737036220077,NULL
1737039516,bc2584302fffead698e1809107a60040,PennController,53,0,frases,NULL,PennController,54,_Trial_,Start,1737036220077,NULL
1737039516,bc2584302fffead698e1809107a60040,PennController,53,0,frases,NULL,Selector,classificacao,Selection,negativa,1737036222134,negativa;neutra;positiva
1737039516,bc2584302fffead698e1809107a60040,PennController,53,0,frases,NULL,PennController,54,_Trial_,End,1737036222134,NULL
1737039516,bc2584302fffead698e1809107a60040,PennController,54,0,frases,NULL,PennController,55,_Trial_,Start,1737036222135,NULL
1737039516,bc2584302fffead698e1809107a60040,PennController,54,0,frases,NULL,Selector,classificacao,Selection,positiva,1737036227893,negativa;neutra;positiva
1737039516,bc2584302fffead698e1809107a60040,PennController,54,0,frases,NULL,PennController,55,_Trial_,End,1737036227894,NULL
1737039516,bc2584302fffead698e1809107a60040,PennController,55,0,frases,NULL,PennController,56,_Trial_,Start,1737036227895,NULL
1737039516,bc2584302fffead698e1809107a60040,PennController,55,0,frases,NULL,Selector,classificacao,Selection,negativa,1737036234293,negativa;neutra;positiva
1737039516,bc2584302fffead698e1809107a60040,PennController,55,0,frases,NULL,PennController,56,_Trial_,End,1737036234294,NULL
1737039516,bc2584302fffead698e1809107a60040,PennController,56,0,frases,NULL,PennController,57,_Trial_,Start,1737036234294,NULL
1737039516,bc2584302fffead698e1809107a60040,PennController,56,0,frases,NULL,Selector,classificacao,Selection,neutra,1737036239173,negativa;neutra;positiva
1737039516,bc2584302fffead698e1809107a60040,PennController,56,0,frases,NULL,PennController,57,_Trial_,End,1737036239174,NULL
1737039516,bc2584302fffead698e1809107a60040,PennController,57,0,frases,NULL,PennController,58,_Trial_,Start,1737036239175,NULL
1737039516,bc2584302fffead698e1809107a60040,PennController,57,0,frases,NULL,Selector,classificacao,Selection,positiva,1737036244245,negativa;neutra;positiva
1737039516,bc2584302fffead698e1809107a60040,PennController,57,0,frases,NULL,PennController,58,_Trial_,End,1737036244245,NULL
1737039516,bc2584302fffead698e1809107a60040,PennController,58,0,frases,NULL,PennController,59,_Trial_,Start,1737036244246,NULL
1737039516,bc2584302fffead698e1809107a60040,PennController,58,0,frases,NULL,Selector,classificacao,Selection,negativa,1737036250390,negativa;neutra;positiva
1737039516,bc2584302fffead698e1809107a60040,PennController,58,0,frases,NULL,PennController,59,_Trial_,End,1737036250390,NULL
1737039516,bc2584302fffead698e1809107a60040,PennController,59,0,frases,NULL,PennController,60,_Trial_,Start,1737036250390,NULL
1737039516,bc2584302fffead698e1809107a60040,PennController,59,0,frases,NULL,Selector,classificacao,Selection,negativa,1737038153323,negativa;neutra;positiva
1737039516,bc2584302fffead698e1809107a60040,PennController,59,0,frases,NULL,PennController,60,_Trial_,End,1737038153326,NULL
1737039516,bc2584302fffead698e1809107a60040,PennController,60,0,frases,NULL,PennController,61,_Trial_,Start,1737038153329,NULL
1737039516,bc2584302fffead698e1809107a60040,PennController,60,0,frases,NULL,Selector,classificacao,Selection,neutra,1737038155869,negativa;neutra;positiva
1737039516,bc2584302fffead698e1809107a60040,PennController,60,0,frases,NULL,PennController,61,_Trial_,End,1737038155870,NULL
1737039516,bc2584302fffead698e1809107a60040,PennController,61,0,frases,NULL,PennController,62,_Trial_,Start,1737038155870,NULL
1737039516,bc2584302fffead698e1809107a60040,PennController,61,0,frases,NULL,Selector,classificacao,Selection,positiva,1737038168772,negativa;neutra;positiva
1737039516,bc2584302fffead698e1809107a60040,PennController,61,0,frases,NULL,PennController,62,_Trial_,End,1737038168773,NULL
1737039516,bc2584302fffead698e1809107a60040,PennController,62,0,frases,NULL,PennController,63,_Trial_,Start,1737038168774,NULL
1737039516,bc2584302fffead698e1809107a60040,PennController,62,0,frases,NULL,Selector,classificacao,Selection,positiva,1737038178868,negativa;neutra;positiva
1737039516,bc2584302fffead698e1809107a60040,PennController,62,0,frases,NULL,PennController,63,_Trial_,End,1737038178869,NULL
1737039516,bc2584302fffead698e1809107a60040,PennController,63,0,frases,NULL,PennController,64,_Trial_,Start,1737038178870,NULL
1737039516,bc2584302fffead698e1809107a60040,PennController,63,0,frases,NULL,Selector,classificacao,Selection,positiva,1737038189669,negativa;neutra;positiva
1737039516,bc2584302fffead698e1809107a60040,PennController,63,0,frases,NULL,PennController,64,_Trial_,End,1737038189669,NULL
1737039516,bc2584302fffead698e1809107a60040,PennController,64,0,frases,NULL,PennController,65,_Trial_,Start,1737038189670,NULL
1737039516,bc2584302fffead698e1809107a60040,PennController,64,0,frases,NULL,Selector,classificacao,Selection,positiva,1737038191707,negativa;neutra;positiva
1737039516,bc2584302fffead698e1809107a60040,PennController,64,0,frases,NULL,PennController,65,_Trial_,End,1737038191708,NULL
1737039516,bc2584302fffead698e1809107a60040,PennController,65,0,frases,NULL,PennController,66,_Trial_,Start,1737038191709,NULL
1737039516,bc2584302fffead698e1809107a60040,PennController,65,0,frases,NULL,Selector,classificacao,Selection,negativa,1737038202955,negativa;neutra;positiva
1737039516,bc2584302fffead698e1809107a60040,PennController,65,0,frases,NULL,PennController,66,_Trial_,End,1737038202956,NULL
1737039516,bc2584302fffead698e1809107a60040,PennController,66,0,frases,NULL,PennController,67,_Trial_,Start,1737038202956,NULL
1737039516,bc2584302fffead698e1809107a60040,PennController,66,0,frases,NULL,Selector,classificacao,Selection,negativa,1737038206812,negativa;neutra;positiva
1737039516,bc2584302fffead698e1809107a60040,PennController,66,0,frases,NULL,PennController,67,_Trial_,End,1737038206813,NULL
1737039516,bc2584302fffead698e1809107a60040,PennController,67,0,frases,NULL,PennController,68,_Trial_,Start,1737038206814,NULL
1737039516,bc2584302fffead698e1809107a60040,PennController,67,0,frases,NULL,Selector,classificacao,Selection,positiva,1737038223460,negativa;neutra;positiva
1737039516,bc2584302fffead698e1809107a60040,PennController,67,0,frases,NULL,PennController,68,_Trial_,End,1737038223460,NULL
1737039516,bc2584302fffead698e1809107a60040,PennController,68,0,frases,NULL,PennController,69,_Trial_,Start,1737038223461,NULL
1737039516,bc2584302fffead698e1809107a60040,PennController,68,0,frases,NULL,Selector,classificacao,Selection,negativa,1737038226460,negativa;neutra;positiva
1737039516,bc2584302fffead698e1809107a60040,PennController,68,0,frases,NULL,PennController,69,_Trial_,End,1737038226461,NULL
1737039516,bc2584302fffead698e1809107a60040,PennController,69,0,frases,NULL,PennController,70,_Trial_,Start,1737038226462,NULL
1737039516,bc2584302fffead698e1809107a60040,PennController,69,0,frases,NULL,Selector,classificacao,Selection,negativa,1737038229827,negativa;neutra;positiva
1737039516,bc2584302fffead698e1809107a60040,PennController,69,0,frases,NULL,PennController,70,_Trial_,End,1737038229828,NULL
1737039516,bc2584302fffead698e1809107a60040,PennController,70,0,frases,NULL,PennController,71,_Trial_,Start,1737038229829,NULL
1737039516,bc2584302fffead698e1809107a60040,PennController,70,0,frases,NULL,Selector,classificacao,Selection,positiva,1737038271198,negativa;neutra;positiva
1737039516,bc2584302fffead698e1809107a60040,PennController,70,0,frases,NULL,PennController,71,_Trial_,End,1737038271198,NULL
1737039516,bc2584302fffead698e1809107a60040,PennController,71,0,frases,NULL,PennController,72,_Trial_,Start,1737038271199,NULL
1737039516,bc2584302fffead698e1809107a60040,PennController,71,0,frases,NULL,Selector,classificacao,Selection,negativa,1737038822175,negativa;neutra;positiva
1737039516,bc2584302fffead698e1809107a60040,PennController,71,0,frases,NULL,PennController,72,_Trial_,End,1737038822179,NULL
1737039516,bc2584302fffead698e1809107a60040,PennController,72,0,frases,NULL,PennController,73,_Trial_,Start,1737038822182,NULL
1737039516,bc2584302fffead698e1809107a60040,PennController,72,0,frases,NULL,Selector,classificacao,Selection,negativa,1737038825220,negativa;neutra;positiva
1737039516,bc2584302fffead698e1809107a60040,PennController,72,0,frases,NULL,PennController,73,_Trial_,End,1737038825222,NULL
1737039516,bc2584302fffead698e1809107a60040,PennController,73,0,frases,NULL,PennController,74,_Trial_,Start,1737038825222,NULL
1737039516,bc2584302fffead698e1809107a60040,PennController,73,0,frases,NULL,Selector,classificacao,Selection,negativa,1737038833207,negativa;neutra;positiva
1737039516,bc2584302fffead698e1809107a60040,PennController,73,0,frases,NULL,PennController,74,_Trial_,End,1737038833208,NULL
1737039516,bc2584302fffead698e1809107a60040,PennController,74,0,frases,NULL,PennController,75,_Trial_,Start,1737038833209,NULL
1737039516,bc2584302fffead698e1809107a60040,PennController,74,0,frases,NULL,Selector,classificacao,Selection,neutra,1737038837278,negativa;neutra;positiva
1737039516,bc2584302fffead698e1809107a60040,PennController,74,0,frases,NULL,PennController,75,_Trial_,End,1737038837278,NULL
1737039516,bc2584302fffead698e1809107a60040,PennController,75,0,frases,NULL,PennController,76,_Trial_,Start,1737038837279,NULL
1737039516,bc2584302fffead698e1809107a60040,PennController,75,0,frases,NULL,Selector,classificacao,Selection,negativa,1737038840454,negativa;neutra;positiva
1737039516,bc2584302fffead698e1809107a60040,PennController,75,0,frases,NULL,PennController,76,_Trial_,End,1737038840455,NULL
1737039516,bc2584302fffead698e1809107a60040,PennController,76,0,frases,NULL,PennController,77,_Trial_,Start,1737038840456,NULL
1737039516,bc2584302fffead698e1809107a60040,PennController,76,0,frases,NULL,Selector,classificacao,Selection,negativa,1737038843654,negativa;neutra;positiva
1737039516,bc2584302fffead698e1809107a60040,PennController,76,0,frases,NULL,PennController,77,_Trial_,End,1737038843655,NULL
1737039516,bc2584302fffead698e1809107a60040,PennController,77,0,frases,NULL,PennController,78,_Trial_,Start,1737038843656,NULL
1737039516,bc2584302fffead698e1809107a60040,PennController,77,0,frases,NULL,Selector,classificacao,Selection,positiva,1737038846903,negativa;neutra;positiva
1737039516,bc2584302fffead698e1809107a60040,PennController,77,0,frases,NULL,PennController,78,_Trial_,End,1737038846904,NULL
1737039516,bc2584302fffead698e1809107a60040,PennController,78,0,frases,NULL,PennController,79,_Trial_,Start,1737038846904,NULL
1737039516,bc2584302fffead698e1809107a60040,PennController,78,0,frases,NULL,Selector,classificacao,Selection,positiva,1737038850414,negativa;neutra;positiva
1737039516,bc2584302fffead698e1809107a60040,PennController,78,0,frases,NULL,PennController,79,_Trial_,End,1737038850415,NULL
1737039516,bc2584302fffead698e1809107a60040,PennController,79,0,frases,NULL,PennController,80,_Trial_,Start,1737038850416,NULL
1737039516,bc2584302fffead698e1809107a60040,PennController,79,0,frases,NULL,Selector,classificacao,Selection,negativa,1737038852751,negativa;neutra;positiva
1737039516,bc2584302fffead698e1809107a60040,PennController,79,0,frases,NULL,PennController,80,_Trial_,End,1737038852751,NULL
1737039516,bc2584302fffead698e1809107a60040,PennController,80,0,frases,NULL,PennController,81,_Trial_,Start,1737038852751,NULL
1737039516,bc2584302fffead698e1809107a60040,PennController,80,0,frases,NULL,Selector,classificacao,Selection,positiva,1737038860374,negativa;neutra;positiva
1737039516,bc2584302fffead698e1809107a60040,PennController,80,0,frases,NULL,PennController,81,_Trial_,End,1737038860375,NULL
1737039516,bc2584302fffead698e1809107a60040,PennController,81,0,frases,NULL,PennController,82,_Trial_,Start,1737038860376,NULL
1737039516,bc2584302fffead698e1809107a60040,PennController,81,0,frases,NULL,Selector,classificacao,Selection,negativa,1737038866023,negativa;neutra;positiva
1737039516,bc2584302fffead698e1809107a60040,PennController,81,0,frases,NULL,PennController,82,_Trial_,End,1737038866024,NULL
1737039516,bc2584302fffead698e1809107a60040,PennController,82,0,frases,NULL,PennController,83,_Trial_,Start,1737038866025,NULL
1737039516,bc2584302fffead698e1809107a60040,PennController,82,0,frases,NULL,Selector,classificacao,Selection,neutra,1737038873438,negativa;neutra;positiva
1737039516,bc2584302fffead698e1809107a60040,PennController,82,0,frases,NULL,PennController,83,_Trial_,End,1737038873439,NULL
1737039516,bc2584302fffead698e1809107a60040,PennController,83,0,frases,NULL,PennController,84,_Trial_,Start,1737038873440,NULL
1737039516,bc2584302fffead698e1809107a60040,PennController,83,0,frases,NULL,Selector,classificacao,Selection,negativa,1737038878726,negativa;neutra;positiva
1737039516,bc2584302fffead698e1809107a60040,PennController,83,0,frases,NULL,PennController,84,_Trial_,End,1737038878727,NULL
1737039516,bc2584302fffead698e1809107a60040,PennController,84,0,frases,NULL,PennController,85,_Trial_,Start,1737038878727,NULL
1737039516,bc2584302fffead698e1809107a60040,PennController,84,0,frases,NULL,Selector,classificacao,Selection,positiva,1737038884104,negativa;neutra;positiva
1737039516,bc2584302fffead698e1809107a60040,PennController,84,0,frases,NULL,PennController,85,_Trial_,End,1737038884104,NULL
1737039516,bc2584302fffead698e1809107a60040,PennController,85,0,frases,NULL,PennController,86,_Trial_,Start,1737038884105,NULL
1737039516,bc2584302fffead698e1809107a60040,PennController,85,0,frases,NULL,Selector,classificacao,Selection,negativa,1737038886343,negativa;neutra;positiva
1737039516,bc2584302fffead698e1809107a60040,PennController,85,0,frases,NULL,PennController,86,_Trial_,End,1737038886343,NULL
1737039516,bc2584302fffead698e1809107a60040,PennController,86,0,frases,NULL,PennController,87,_Trial_,Start,1737038886344,NULL
1737039516,bc2584302fffead698e1809107a60040,PennController,86,0,frases,NULL,Selector,classificacao,Selection,negativa,1737038889390,negativa;neutra;positiva
1737039516,bc2584302fffead698e1809107a60040,PennController,86,0,frases,NULL,PennController,87,_Trial_,End,1737038889391,NULL
1737039516,bc2584302fffead698e1809107a60040,PennController,87,0,frases,NULL,PennController,88,_Trial_,Start,1737038889391,NULL
1737039516,bc2584302fffead698e1809107a60040,PennController,87,0,frases,NULL,Selector,classificacao,Selection,positiva,1737038973654,negativa;neutra;positiva
1737039516,bc2584302fffead698e1809107a60040,PennController,87,0,frases,NULL,PennController,88,_Trial_,End,1737038973654,NULL
1737039516,bc2584302fffead698e1809107a60040,PennController,88,0,frases,NULL,PennController,89,_Trial_,Start,1737038973655,NULL
1737039516,bc2584302fffead698e1809107a60040,PennController,88,0,frases,NULL,Selector,classificacao,Selection,neutra,1737038977823,negativa;neutra;positiva
1737039516,bc2584302fffead698e1809107a60040,PennController,88,0,frases,NULL,PennController,89,_Trial_,End,1737038977823,NULL
1737039516,bc2584302fffead698e1809107a60040,PennController,89,0,frases,NULL,PennController,90,_Trial_,Start,1737038977824,NULL
1737039516,bc2584302fffead698e1809107a60040,PennController,89,0,frases,NULL,Selector,classificacao,Selection,positiva,1737038980582,negativa;neutra;positiva
1737039516,bc2584302fffead698e1809107a60040,PennController,89,0,frases,NULL,PennController,90,_Trial_,End,1737038980583,NULL
1737039516,bc2584302fffead698e1809107a60040,PennController,90,0,frases,NULL,PennController,91,_Trial_,Start,1737038980584,NULL
1737039516,bc2584302fffead698e1809107a60040,PennController,90,0,frases,NULL,Selector,classificacao,Selection,negativa,1737038985886,negativa;neutra;positiva
1737039516,bc2584302fffead698e1809107a60040,PennController,90,0,frases,NULL,PennController,91,_Trial_,End,1737038985886,NULL
1737039516,bc2584302fffead698e1809107a60040,PennController,91,0,frases,NULL,PennController,92,_Trial_,Start,1737038985887,NULL
1737039516,bc2584302fffead698e1809107a60040,PennController,91,0,frases,NULL,Selector,classificacao,Selection,negativa,1737039009758,negativa;neutra;positiva
1737039516,bc2584302fffead698e1809107a60040,PennController,91,0,frases,NULL,PennController,92,_Trial_,End,1737039009758,NULL
1737039516,bc2584302fffead698e1809107a60040,PennController,92,0,frases,NULL,PennController,93,_Trial_,Start,1737039009759,NULL
1737039516,bc2584302fffead698e1809107a60040,PennController,92,0,frases,NULL,Selector,classificacao,Selection,positiva,1737039072399,negativa;neutra;positiva
1737039516,bc2584302fffead698e1809107a60040,PennController,92,0,frases,NULL,PennController,93,_Trial_,End,1737039072399,NULL
1737039516,bc2584302fffead698e1809107a60040,PennController,93,0,frases,NULL,PennController,94,_Trial_,Start,1737039072400,NULL
1737039516,bc2584302fffead698e1809107a60040,PennController,93,0,frases,NULL,Selector,classificacao,Selection,neutra,1737039079093,negativa;neutra;positiva
1737039516,bc2584302fffead698e1809107a60040,PennController,93,0,frases,NULL,PennController,94,_Trial_,End,1737039079093,NULL
1737039516,bc2584302fffead698e1809107a60040,PennController,94,0,frases,NULL,PennController,95,_Trial_,Start,1737039079094,NULL
1737039516,bc2584302fffead698e1809107a60040,PennController,94,0,frases,NULL,Selector,classificacao,Selection,negativa,1737039082525,negativa;neutra;positiva
1737039516,bc2584302fffead698e1809107a60040,PennController,94,0,frases,NULL,PennController,95,_Trial_,End,1737039082526,NULL
1737039516,bc2584302fffead698e1809107a60040,PennController,95,0,frases,NULL,PennController,96,_Trial_,Start,1737039082527,NULL
1737039516,bc2584302fffead698e1809107a60040,PennController,95,0,frases,NULL,Selector,classificacao,Selection,positiva,1737039087526,negativa;neutra;positiva
1737039516,bc2584302fffead698e1809107a60040,PennController,95,0,frases,NULL,PennController,96,_Trial_,End,1737039087527,NULL
1737039516,bc2584302fffead698e1809107a60040,PennController,96,0,frases,NULL,PennController,97,_Trial_,Start,1737039087528,NULL
1737039516,bc2584302fffead698e1809107a60040,PennController,96,0,frases,NULL,Selector,classificacao,Selection,positiva,1737039092076,negativa;neutra;positiva
1737039516,bc2584302fffead698e1809107a60040,PennController,96,0,frases,NULL,PennController,97,_Trial_,End,1737039092077,NULL
1737039516,bc2584302fffead698e1809107a60040,PennController,97,0,frases,NULL,PennController,98,_Trial_,Start,1737039092079,NULL
1737039516,bc2584302fffead698e1809107a60040,PennController,97,0,frases,NULL,Selector,classificacao,Selection,neutra,1737039094918,negativa;neutra;positiva
1737039516,bc2584302fffead698e1809107a60040,PennController,97,0,frases,NULL,PennController,98,_Trial_,End,1737039094918,NULL
1737039516,bc2584302fffead698e1809107a60040,PennController,98,0,frases,NULL,PennController,99,_Trial_,Start,1737039094918,NULL
1737039516,bc2584302fffead698e1809107a60040,PennController,98,0,frases,NULL,Selector,classificacao,Selection,negativa,1737039098357,negativa;neutra;positiva
1737039516,bc2584302fffead698e1809107a60040,PennController,98,0,frases,NULL,PennController,99,_Trial_,End,1737039098358,NULL
1737039516,bc2584302fffead698e1809107a60040,PennController,99,0,frases,NULL,PennController,100,_Trial_,Start,1737039098358,NULL
1737039516,bc2584302fffead698e1809107a60040,PennController,99,0,frases,NULL,Selector,classificacao,Selection,positiva,1737039106229,negativa;neutra;positiva
1737039516,bc2584302fffead698e1809107a60040,PennController,99,0,frases,NULL,PennController,100,_Trial_,End,1737039106230,NULL
1737039516,bc2584302fffead698e1809107a60040,PennController,100,0,frases,NULL,PennController,101,_Trial_,Start,1737039106230,NULL
1737039516,bc2584302fffead698e1809107a60040,PennController,100,0,frases,NULL,Selector,classificacao,Selection,neutra,1737039109318,negativa;neutra;positiva
1737039516,bc2584302fffead698e1809107a60040,PennController,100,0,frases,NULL,PennController,101,_Trial_,End,1737039109319,NULL
1737039516,bc2584302fffead698e1809107a60040,PennController,101,0,frases,NULL,PennController,102,_Trial_,Start,1737039109320,NULL
1737039516,bc2584302fffead698e1809107a60040,PennController,101,0,frases,NULL,Selector,classificacao,Selection,positiva,1737039112125,negativa;neutra;positiva
1737039516,bc2584302fffead698e1809107a60040,PennController,101,0,frases,NULL,PennController,102,_Trial_,End,1737039112126,NULL
1737039516,bc2584302fffead698e1809107a60040,PennController,102,0,frases,NULL,PennController,103,_Trial_,Start,1737039112126,NULL
1737039516,bc2584302fffead698e1809107a60040,PennController,102,0,frases,NULL,Selector,classificacao,Selection,positiva,1737039120965,negativa;neutra;positiva
1737039516,bc2584302fffead698e1809107a60040,PennController,102,0,frases,NULL,PennController,103,_Trial_,End,1737039120966,NULL
1737039516,bc2584302fffead698e1809107a60040,PennController,103,0,frases,NULL,PennController,104,_Trial_,Start,1737039120967,NULL
1737039516,bc2584302fffead698e1809107a60040,PennController,103,0,frases,NULL,Selector,classificacao,Selection,negativa,1737039123358,negativa;neutra;positiva
1737039516,bc2584302fffead698e1809107a60040,PennController,103,0,frases,NULL,PennController,104,_Trial_,End,1737039123359,NULL
1737039516,bc2584302fffead698e1809107a60040,PennController,104,0,frases,NULL,PennController,105,_Trial_,Start,1737039123359,NULL
1737039516,bc2584302fffead698e1809107a60040,PennController,104,0,frases,NULL,Selector,classificacao,Selection,positiva,1737039126717,negativa;neutra;positiva
1737039516,bc2584302fffead698e1809107a60040,PennController,104,0,frases,NULL,PennController,105,_Trial_,End,1737039126718,NULL
1737039516,bc2584302fffead698e1809107a60040,PennController,105,0,frases,NULL,PennController,106,_Trial_,Start,1737039126718,NULL
1737039516,bc2584302fffead698e1809107a60040,PennController,105,0,frases,NULL,Selector,classificacao,Selection,negativa,1737039129725,negativa;neutra;positiva
1737039516,bc2584302fffead698e1809107a60040,PennController,105,0,frases,NULL,PennController,106,_Trial_,End,1737039129726,NULL
1737039516,bc2584302fffead698e1809107a60040,PennController,106,0,frases,NULL,PennController,107,_Trial_,Start,1737039129726,NULL
1737039516,bc2584302fffead698e1809107a60040,PennController,106,0,frases,NULL,Selector,classificacao,Selection,negativa,1737039132725,negativa;neutra;positiva
1737039516,bc2584302fffead698e1809107a60040,PennController,106,0,frases,NULL,PennController,107,_Trial_,End,1737039132726,NULL
1737039516,bc2584302fffead698e1809107a60040,PennController,107,0,frases,NULL,PennController,108,_Trial_,Start,1737039132727,NULL
1737039516,bc2584302fffead698e1809107a60040,PennController,107,0,frases,NULL,Selector,classificacao,Selection,neutra,1737039134886,negativa;neutra;positiva
1737039516,bc2584302fffead698e1809107a60040,PennController,107,0,frases,NULL,PennController,108,_Trial_,End,1737039134887,NULL
1737039516,bc2584302fffead698e1809107a60040,PennController,108,0,frases,NULL,PennController,109,_Trial_,Start,1737039134887,NULL
1737039516,bc2584302fffead698e1809107a60040,PennController,108,0,frases,NULL,Selector,classificacao,Selection,neutra,1737039146765,negativa;neutra;positiva
1737039516,bc2584302fffead698e1809107a60040,PennController,108,0,frases,NULL,PennController,109,_Trial_,End,1737039146766,NULL
1737039516,bc2584302fffead698e1809107a60040,PennController,109,0,frases,NULL,PennController,110,_Trial_,Start,1737039146766,NULL
1737039516,bc2584302fffead698e1809107a60040,PennController,109,0,frases,NULL,Selector,classificacao,Selection,positiva,1737039150373,negativa;neutra;positiva
1737039516,bc2584302fffead698e1809107a60040,PennController,109,0,frases,NULL,PennController,110,_Trial_,End,1737039150374,NULL
1737039516,bc2584302fffead698e1809107a60040,PennController,110,0,frases,NULL,PennController,111,_Trial_,Start,1737039150374,NULL
1737039516,bc2584302fffead698e1809107a60040,PennController,110,0,frases,NULL,Selector,classificacao,Selection,positiva,1737039153605,negativa;neutra;positiva
1737039516,bc2584302fffead698e1809107a60040,PennController,110,0,frases,NULL,PennController,111,_Trial_,End,1737039153606,NULL
1737039516,bc2584302fffead698e1809107a60040,PennController,111,0,frases,NULL,PennController,112,_Trial_,Start,1737039153607,NULL
1737039516,bc2584302fffead698e1809107a60040,PennController,111,0,frases,NULL,Selector,classificacao,Selection,positiva,1737039162341,negativa;neutra;positiva
1737039516,bc2584302fffead698e1809107a60040,PennController,111,0,frases,NULL,PennController,112,_Trial_,End,1737039162342,NULL
1737039516,bc2584302fffead698e1809107a60040,PennController,112,0,frases,NULL,PennController,113,_Trial_,Start,1737039162342,NULL
1737039516,bc2584302fffead698e1809107a60040,PennController,112,0,frases,NULL,Selector,classificacao,Selection,positiva,1737039166453,negativa;neutra;positiva
1737039516,bc2584302fffead698e1809107a60040,PennController,112,0,frases,NULL,PennController,113,_Trial_,End,1737039166454,NULL
1737039516,bc2584302fffead698e1809107a60040,PennController,113,0,frases,NULL,PennController,114,_Trial_,Start,1737039166454,NULL
1737039516,bc2584302fffead698e1809107a60040,PennController,113,0,frases,NULL,Selector,classificacao,Selection,positiva,1737039168581,negativa;neutra;positiva
1737039516,bc2584302fffead698e1809107a60040,PennController,113,0,frases,NULL,PennController,114,_Trial_,End,1737039168582,NULL
1737039516,bc2584302fffead698e1809107a60040,PennController,114,0,frases,NULL,PennController,115,_Trial_,Start,1737039168583,NULL
1737039516,bc2584302fffead698e1809107a60040,PennController,114,0,frases,NULL,Selector,classificacao,Selection,positiva,1737039173774,negativa;neutra;positiva
1737039516,bc2584302fffead698e1809107a60040,PennController,114,0,frases,NULL,PennController,115,_Trial_,End,1737039173774,NULL
1737039516,bc2584302fffead698e1809107a60040,PennController,115,0,frases,NULL,PennController,116,_Trial_,Start,1737039173775,NULL
1737039516,bc2584302fffead698e1809107a60040,PennController,115,0,frases,NULL,Selector,classificacao,Selection,neutra,1737039180141,negativa;neutra;positiva
1737039516,bc2584302fffead698e1809107a60040,PennController,115,0,frases,NULL,PennController,116,_Trial_,End,1737039180141,NULL
1737039516,bc2584302fffead698e1809107a60040,PennController,116,0,frases,NULL,PennController,117,_Trial_,Start,1737039180142,NULL
1737039516,bc2584302fffead698e1809107a60040,PennController,116,0,frases,NULL,Selector,classificacao,Selection,negativa,1737039183925,negativa;neutra;positiva
1737039516,bc2584302fffead698e1809107a60040,PennController,116,0,frases,NULL,PennController,117,_Trial_,End,1737039183926,NULL
1737039516,bc2584302fffead698e1809107a60040,PennController,117,0,frases,NULL,PennController,118,_Trial_,Start,1737039183926,NULL
1737039516,bc2584302fffead698e1809107a60040,PennController,117,0,frases,NULL,Selector,classificacao,Selection,positiva,1737039186870,negativa;neutra;positiva
1737039516,bc2584302fffead698e1809107a60040,PennController,117,0,frases,NULL,PennController,118,_Trial_,End,1737039186871,NULL
1737039516,bc2584302fffead698e1809107a60040,PennController,118,0,frases,NULL,PennController,119,_Trial_,Start,1737039186871,NULL
1737039516,bc2584302fffead698e1809107a60040,PennController,118,0,frases,NULL,Selector,classificacao,Selection,negativa,1737039188822,negativa;neutra;positiva
1737039516,bc2584302fffead698e1809107a60040,PennController,118,0,frases,NULL,PennController,119,_Trial_,End,1737039188822,NULL
1737039516,bc2584302fffead698e1809107a60040,PennController,119,0,frases,NULL,PennController,120,_Trial_,Start,1737039188822,NULL
1737039516,bc2584302fffead698e1809107a60040,PennController,119,0,frases,NULL,Selector,classificacao,Selection,negativa,1737039195429,negativa;neutra;positiva
1737039516,bc2584302fffead698e1809107a60040,PennController,119,0,frases,NULL,PennController,120,_Trial_,End,1737039195429,NULL
1737039516,bc2584302fffead698e1809107a60040,PennController,120,0,frases,NULL,PennController,121,_Trial_,Start,1737039195430,NULL
1737039516,bc2584302fffead698e1809107a60040,PennController,120,0,frases,NULL,Selector,classificacao,Selection,positiva,1737039198205,negativa;neutra;positiva
1737039516,bc2584302fffead698e1809107a60040,PennController,120,0,frases,NULL,PennController,121,_Trial_,End,1737039198206,NULL
1737039516,bc2584302fffead698e1809107a60040,PennController,121,0,frases,NULL,PennController,122,_Trial_,Start,1737039198206,NULL
1737039516,bc2584302fffead698e1809107a60040,PennController,121,0,frases,NULL,Selector,classificacao,Selection,neutra,1737039202213,negativa;neutra;positiva
1737039516,bc2584302fffead698e1809107a60040,PennController,121,0,frases,NULL,PennController,122,_Trial_,End,1737039202214,NULL
1737039516,bc2584302fffead698e1809107a60040,PennController,122,0,frases,NULL,PennController,123,_Trial_,Start,1737039202215,NULL
1737039516,bc2584302fffead698e1809107a60040,PennController,122,0,frases,NULL,Selector,classificacao,Selection,negativa,1737039228406,negativa;neutra;positiva
1737039516,bc2584302fffead698e1809107a60040,PennController,122,0,frases,NULL,PennController,123,_Trial_,End,1737039228407,NULL
1737039516,bc2584302fffead698e1809107a60040,PennController,123,0,frases,NULL,PennController,124,_Trial_,Start,1737039228407,NULL
1737039516,bc2584302fffead698e1809107a60040,PennController,123,0,frases,NULL,Selector,classificacao,Selection,positiva,1737039231268,negativa;neutra;positiva
1737039516,bc2584302fffead698e1809107a60040,PennController,123,0,frases,NULL,PennController,124,_Trial_,End,1737039231268,NULL
1737039516,bc2584302fffead698e1809107a60040,PennController,124,0,frases,NULL,PennController,125,_Trial_,Start,1737039231268,NULL
1737039516,bc2584302fffead698e1809107a60040,PennController,124,0,frases,NULL,Selector,classificacao,Selection,positiva,1737039237646,negativa;neutra;positiva
1737039516,bc2584302fffead698e1809107a60040,PennController,124,0,frases,NULL,PennController,125,_Trial_,End,1737039237646,NULL
1737039516,bc2584302fffead698e1809107a60040,PennController,125,0,frases,NULL,PennController,126,_Trial_,Start,1737039237647,NULL
1737039516,bc2584302fffead698e1809107a60040,PennController,125,0,frases,NULL,Selector,classificacao,Selection,negativa,1737039386604,negativa;neutra;positiva
1737039516,bc2584302fffead698e1809107a60040,PennController,125,0,frases,NULL,PennController,126,_Trial_,End,1737039386605,NULL
1737039516,bc2584302fffead698e1809107a60040,PennController,126,0,frases,NULL,PennController,127,_Trial_,Start,1737039386606,NULL
1737039516,bc2584302fffead698e1809107a60040,PennController,126,0,frases,NULL,Selector,classificacao,Selection,negativa,1737039389195,negativa;neutra;positiva
1737039516,bc2584302fffead698e1809107a60040,PennController,126,0,frases,NULL,PennController,127,_Trial_,End,1737039389196,NULL
1737039516,bc2584302fffead698e1809107a60040,PennController,127,0,frases,NULL,PennController,128,_Trial_,Start,1737039389197,NULL
1737039516,bc2584302fffead698e1809107a60040,PennController,127,0,frases,NULL,Selector,classificacao,Selection,positiva,1737039391036,negativa;neutra;positiva
1737039516,bc2584302fffead698e1809107a60040,PennController,127,0,frases,NULL,PennController,128,_Trial_,End,1737039391036,NULL
1737039516,bc2584302fffead698e1809107a60040,PennController,128,0,frases,NULL,PennController,129,_Trial_,Start,1737039391037,NULL
1737039516,bc2584302fffead698e1809107a60040,PennController,128,0,frases,NULL,Selector,classificacao,Selection,neutra,1737039393589,negativa;neutra;positiva
1737039516,bc2584302fffead698e1809107a60040,PennController,128,0,frases,NULL,PennController,129,_Trial_,End,1737039393589,NULL
1737039516,bc2584302fffead698e1809107a60040,PennController,129,0,frases,NULL,PennController,130,_Trial_,Start,1737039393590,NULL
1737039516,bc2584302fffead698e1809107a60040,PennController,129,0,frases,NULL,Selector,classificacao,Selection,negativa,1737039397805,negativa;neutra;positiva
1737039516,bc2584302fffead698e1809107a60040,PennController,129,0,frases,NULL,PennController,130,_Trial_,End,1737039397806,NULL
1737039516,bc2584302fffead698e1809107a60040,PennController,130,0,frases,NULL,PennController,131,_Trial_,Start,1737039397806,NULL
1737039516,bc2584302fffead698e1809107a60040,PennController,130,0,frases,NULL,Selector,classificacao,Selection,positiva,1737039403188,negativa;neutra;positiva
1737039516,bc2584302fffead698e1809107a60040,PennController,130,0,frases,NULL,PennController,131,_Trial_,End,1737039403189,NULL
1737039516,bc2584302fffead698e1809107a60040,PennController,131,0,frases,NULL,PennController,132,_Trial_,Start,1737039403189,NULL
1737039516,bc2584302fffead698e1809107a60040,PennController,131,0,frases,NULL,Selector,classificacao,Selection,positiva,1737039405267,negativa;neutra;positiva
1737039516,bc2584302fffead698e1809107a60040,PennController,131,0,frases,NULL,PennController,132,_Trial_,End,1737039405268,NULL
1737039516,bc2584302fffead698e1809107a60040,PennController,132,0,frases,NULL,PennController,133,_Trial_,Start,1737039405269,NULL
1737039516,bc2584302fffead698e1809107a60040,PennController,132,0,frases,NULL,Selector,classificacao,Selection,negativa,1737039409100,negativa;neutra;positiva
1737039516,bc2584302fffead698e1809107a60040,PennController,132,0,frases,NULL,PennController,133,_Trial_,End,1737039409100,NULL
1737039516,bc2584302fffead698e1809107a60040,PennController,133,0,frases,NULL,PennController,134,_Trial_,Start,1737039409102,NULL
1737039516,bc2584302fffead698e1809107a60040,PennController,133,0,frases,NULL,Selector,classificacao,Selection,negativa,1737039416396,negativa;neutra;positiva
1737039516,bc2584302fffead698e1809107a60040,PennController,133,0,frases,NULL,PennController,134,_Trial_,End,1737039416396,NULL
1737039516,bc2584302fffead698e1809107a60040,PennController,134,0,frases,NULL,PennController,135,_Trial_,Start,1737039416397,NULL
1737039516,bc2584302fffead698e1809107a60040,PennController,134,0,frases,NULL,Selector,classificacao,Selection,negativa,1737039419451,negativa;neutra;positiva
1737039516,bc2584302fffead698e1809107a60040,PennController,134,0,frases,NULL,PennController,135,_Trial_,End,1737039419452,NULL
1737039516,bc2584302fffead698e1809107a60040,PennController,135,0,frases,NULL,PennController,136,_Trial_,Start,1737039419452,NULL
1737039516,bc2584302fffead698e1809107a60040,PennController,135,0,frases,NULL,Selector,classificacao,Selection,positiva,1737039428907,negativa;neutra;positiva
1737039516,bc2584302fffead698e1809107a60040,PennController,135,0,frases,NULL,PennController,136,_Trial_,End,1737039428909,NULL
1737039516,bc2584302fffead698e1809107a60040,PennController,136,0,frases,NULL,PennController,137,_Trial_,Start,1737039428909,NULL
1737039516,bc2584302fffead698e1809107a60040,PennController,136,0,frases,NULL,Selector,classificacao,Selection,positiva,1737039432006,negativa;neutra;positiva
1737039516,bc2584302fffead698e1809107a60040,PennController,136,0,frases,NULL,PennController,137,_Trial_,End,1737039432006,NULL
1737039516,bc2584302fffead698e1809107a60040,PennController,137,0,frases,NULL,PennController,138,_Trial_,Start,1737039432007,NULL
1737039516,bc2584302fffead698e1809107a60040,PennController,137,0,frases,NULL,Selector,classificacao,Selection,neutra,1737039435004,negativa;neutra;positiva
1737039516,bc2584302fffead698e1809107a60040,PennController,137,0,frases,NULL,PennController,138,_Trial_,End,1737039435005,NULL
1737039516,bc2584302fffead698e1809107a60040,PennController,138,0,frases,NULL,PennController,139,_Trial_,Start,1737039435005,NULL
1737039516,bc2584302fffead698e1809107a60040,PennController,138,0,frases,NULL,Selector,classificacao,Selection,positiva,1737039438957,negativa;neutra;positiva
1737039516,bc2584302fffead698e1809107a60040,PennController,138,0,frases,NULL,PennController,139,_Trial_,End,1737039438957,NULL
1737039516,bc2584302fffead698e1809107a60040,PennController,139,0,frases,NULL,PennController,140,_Trial_,Start,1737039438958,NULL
1737039516,bc2584302fffead698e1809107a60040,PennController,139,0,frases,NULL,Selector,classificacao,Selection,neutra,1737039442419,negativa;neutra;positiva
1737039516,bc2584302fffead698e1809107a60040,PennController,139,0,frases,NULL,PennController,140,_Trial_,End,1737039442420,NULL
1737039516,bc2584302fffead698e1809107a60040,PennController,140,0,frases,NULL,PennController,141,_Trial_,Start,1737039442421,NULL
1737039516,bc2584302fffead698e1809107a60040,PennController,140,0,frases,NULL,Selector,classificacao,Selection,positiva,1737039448035,negativa;neutra;positiva
1737039516,bc2584302fffead698e1809107a60040,PennController,140,0,frases,NULL,PennController,141,_Trial_,End,1737039448035,NULL
1737039516,bc2584302fffead698e1809107a60040,PennController,141,0,frases,NULL,PennController,142,_Trial_,Start,1737039448036,NULL
1737039516,bc2584302fffead698e1809107a60040,PennController,141,0,frases,NULL,Selector,classificacao,Selection,neutra,1737039450500,negativa;neutra;positiva
1737039516,bc2584302fffead698e1809107a60040,PennController,141,0,frases,NULL,PennController,142,_Trial_,End,1737039450500,NULL
1737039516,bc2584302fffead698e1809107a60040,PennController,142,0,frases,NULL,PennController,143,_Trial_,Start,1737039450501,NULL
1737039516,bc2584302fffead698e1809107a60040,PennController,142,0,frases,NULL,Selector,classificacao,Selection,positiva,1737039453196,negativa;neutra;positiva
1737039516,bc2584302fffead698e1809107a60040,PennController,142,0,frases,NULL,PennController,143,_Trial_,End,1737039453197,NULL
1737039516,bc2584302fffead698e1809107a60040,PennController,143,0,frases,NULL,PennController,144,_Trial_,Start,1737039453197,NULL
1737039516,bc2584302fffead698e1809107a60040,PennController,143,0,frases,NULL,Selector,classificacao,Selection,positiva,1737039461069,negativa;neutra;positiva
1737039516,bc2584302fffead698e1809107a60040,PennController,143,0,frases,NULL,PennController,144,_Trial_,End,1737039461069,NULL
1737039516,bc2584302fffead698e1809107a60040,PennController,144,0,frases,NULL,PennController,145,_Trial_,Start,1737039461070,NULL
1737039516,bc2584302fffead698e1809107a60040,PennController,144,0,frases,NULL,Selector,classificacao,Selection,negativa,1737039464523,negativa;neutra;positiva
1737039516,bc2584302fffead698e1809107a60040,PennController,144,0,frases,NULL,PennController,145,_Trial_,End,1737039464524,NULL
1737039516,bc2584302fffead698e1809107a60040,PennController,145,0,frases,NULL,PennController,146,_Trial_,Start,1737039464525,NULL
1737039516,bc2584302fffead698e1809107a60040,PennController,145,0,frases,NULL,Selector,classificacao,Selection,positiva,1737039468044,negativa;neutra;positiva
1737039516,bc2584302fffead698e1809107a60040,PennController,145,0,frases,NULL,PennController,146,_Trial_,End,1737039468045,NULL
1737039516,bc2584302fffead698e1809107a60040,PennController,146,0,frases,NULL,PennController,147,_Trial_,Start,1737039468046,NULL
1737039516,bc2584302fffead698e1809107a60040,PennController,146,0,frases,NULL,Selector,classificacao,Selection,negativa,1737039471645,negativa;neutra;positiva
1737039516,bc2584302fffead698e1809107a60040,PennController,146,0,frases,NULL,PennController,147,_Trial_,End,1737039471645,NULL
1737039516,bc2584302fffead698e1809107a60040,PennController,147,0,frases,NULL,PennController,148,_Trial_,Start,1737039471646,NULL
1737039516,bc2584302fffead698e1809107a60040,PennController,147,0,frases,NULL,Selector,classificacao,Selection,negativa,1737039474396,negativa;neutra;positiva
1737039516,bc2584302fffead698e1809107a60040,PennController,147,0,frases,NULL,PennController,148,_Trial_,End,1737039474397,NULL
1737039516,bc2584302fffead698e1809107a60040,PennController,148,0,frases,NULL,PennController,149,_Trial_,Start,1737039474397,NULL
1737039516,bc2584302fffead698e1809107a60040,PennController,148,0,frases,NULL,Selector,classificacao,Selection,positiva,1737039477036,negativa;neutra;positiva
1737039516,bc2584302fffead698e1809107a60040,PennController,148,0,frases,NULL,PennController,149,_Trial_,End,1737039477036,NULL
1737039516,bc2584302fffead698e1809107a60040,PennController,149,0,frases,NULL,PennController,150,_Trial_,Start,1737039477037,NULL
1737039516,bc2584302fffead698e1809107a60040,PennController,149,0,frases,NULL,Selector,classificacao,Selection,positiva,1737039480644,negativa;neutra;positiva
1737039516,bc2584302fffead698e1809107a60040,PennController,149,0,frases,NULL,PennController,150,_Trial_,End,1737039480645,NULL
1737039516,bc2584302fffead698e1809107a60040,PennController,150,0,frases,NULL,PennController,151,_Trial_,Start,1737039480645,NULL
1737039516,bc2584302fffead698e1809107a60040,PennController,150,0,frases,NULL,Selector,classificacao,Selection,positiva,1737039483484,negativa;neutra;positiva
1737039516,bc2584302fffead698e1809107a60040,PennController,150,0,frases,NULL,PennController,151,_Trial_,End,1737039483485,NULL
1737039516,bc2584302fffead698e1809107a60040,PennController,151,0,frases,NULL,PennController,152,_Trial_,Start,1737039483486,NULL
1737039516,bc2584302fffead698e1809107a60040,PennController,151,0,frases,NULL,Selector,classificacao,Selection,negativa,1737039487067,negativa;neutra;positiva
1737039516,bc2584302fffead698e1809107a60040,PennController,151,0,frases,NULL,PennController,152,_Trial_,End,1737039487068,NULL
1737039516,bc2584302fffead698e1809107a60040,PennController,152,0,frases,NULL,PennController,153,_Trial_,Start,1737039487069,NULL
1737039516,bc2584302fffead698e1809107a60040,PennController,152,0,frases,NULL,Selector,classificacao,Selection,positiva,1737039490292,negativa;neutra;positiva
1737039516,bc2584302fffead698e1809107a60040,PennController,152,0,frases,NULL,PennController,153,_Trial_,End,1737039490293,NULL
1737039516,bc2584302fffead698e1809107a60040,PennController,153,0,frases,NULL,PennController,154,_Trial_,Start,1737039490294,NULL
1737039516,bc2584302fffead698e1809107a60040,PennController,153,0,frases,NULL,Selector,classificacao,Selection,positiva,1737039510757,negativa;neutra;positiva
1737039516,bc2584302fffead698e1809107a60040,PennController,153,0,frases,NULL,PennController,154,_Trial_,End,1737039510758,NULL
1737039516,bc2584302fffead698e1809107a60040,PennController,154,0,agradecimento,NULL,PennController,4,_Trial_,Start,1737039510758,NULL
1737039516,bc2584302fffead698e1809107a60040,PennController,154,0,agradecimento,NULL,PennController,4,_Trial_,End,1737039515604,NULL
#
# Results on Fri, 17 Jan 2025 12:29:00 GMT
# USER AGENT: Mozilla/5.0 (Windows NT 10.0; Win64; x64) AppleWebKit/537.36 (KHTML, like Gecko) Chrome/132.0.0.0 Safari/537.36
# Design number was non-random = 1
#
# Columns below this comment are as follows:
# 1. Results reception time.
# 2. MD5 hash of participant's IP address.
# 3. Controller name.
# 4. Order number of item.
# 5. Inner element number.
# 6. Label.
# 7. Latin Square Group.
# 8. PennElementType.
# 9. PennElementName.
# 10. Parameter.
# 11. Value.
# 12. EventTime.
# 13. Comments.
1737116940,bdf066947686ab2cd01768f202816430,PennController,0,0,TCLE,NULL,PennController,0,_Trial_,Start,1737113726686,NULL
1737116940,bdf066947686ab2cd01768f202816430,PennController,0,0,TCLE,NULL,PennController,0,_Trial_,End,1737113841639,NULL
1737116940,bdf066947686ab2cd01768f202816430,PennController,3,0,instrucoes,NULL,PennController,3,_Trial_,Start,1737113841642,NULL
1737116940,bdf066947686ab2cd01768f202816430,PennController,3,0,instrucoes,NULL,PennController,3,_Trial_,End,1737113854778,NULL
1737116940,bdf066947686ab2cd01768f202816430,PennController,1,0,genero,NULL,PennController,1,_Trial_,Start,1737113854779,NULL
1737116940,bdf066947686ab2cd01768f202816430,PennController,1,0,genero,NULL,DropDown,selecionaGenero,Selected,Feminino,1737113857423,1
1737116940,bdf066947686ab2cd01768f202816430,PennController,1,0,genero,NULL,PennController,1,_Trial_,End,1737113858333,NULL
1737116940,bdf066947686ab2cd01768f202816430,PennController,4,0,frases,NULL,PennController,5,_Trial_,Start,1737113858334,NULL
1737116940,bdf066947686ab2cd01768f202816430,PennController,4,0,frases,NULL,Selector,classificacao,Selection,positiva,1737113897996,negativa;neutra;positiva
1737116940,bdf066947686ab2cd01768f202816430,PennController,4,0,frases,NULL,PennController,5,_Trial_,End,1737113897998,NULL
1737116940,bdf066947686ab2cd01768f202816430,PennController,5,0,frases,NULL,PennController,6,_Trial_,Start,1737113897999,NULL
1737116940,bdf066947686ab2cd01768f202816430,PennController,5,0,frases,NULL,Selector,classificacao,Selection,positiva,1737113922246,negativa;neutra;positiva
1737116940,bdf066947686ab2cd01768f202816430,PennController,5,0,frases,NULL,PennController,6,_Trial_,End,1737113922248,NULL
1737116940,bdf066947686ab2cd01768f202816430,PennController,6,0,frases,NULL,PennController,7,_Trial_,Start,1737113922249,NULL
1737116940,bdf066947686ab2cd01768f202816430,PennController,6,0,frases,NULL,Selector,classificacao,Selection,neutra,1737114055573,negativa;neutra;positiva
1737116940,bdf066947686ab2cd01768f202816430,PennController,6,0,frases,NULL,PennController,7,_Trial_,End,1737114055574,NULL
1737116940,bdf066947686ab2cd01768f202816430,PennController,7,0,frases,NULL,PennController,8,_Trial_,Start,1737114055575,NULL
1737116940,bdf066947686ab2cd01768f202816430,PennController,7,0,frases,NULL,Selector,classificacao,Selection,positiva,1737114065910,negativa;neutra;positiva
1737116940,bdf066947686ab2cd01768f202816430,PennController,7,0,frases,NULL,PennController,8,_Trial_,End,1737114065912,NULL
1737116940,bdf066947686ab2cd01768f202816430,PennController,8,0,frases,NULL,PennController,9,_Trial_,Start,1737114065913,NULL
1737116940,bdf066947686ab2cd01768f202816430,PennController,8,0,frases,NULL,Selector,classificacao,Selection,positiva,1737114071041,negativa;neutra;positiva
1737116940,bdf066947686ab2cd01768f202816430,PennController,8,0,frases,NULL,PennController,9,_Trial_,End,1737114071042,NULL
1737116940,bdf066947686ab2cd01768f202816430,PennController,9,0,frases,NULL,PennController,10,_Trial_,Start,1737114071044,NULL
1737116940,bdf066947686ab2cd01768f202816430,PennController,9,0,frases,NULL,Selector,classificacao,Selection,negativa,1737114079851,negativa;neutra;positiva
1737116940,bdf066947686ab2cd01768f202816430,PennController,9,0,frases,NULL,PennController,10,_Trial_,End,1737114079852,NULL
1737116940,bdf066947686ab2cd01768f202816430,PennController,10,0,frases,NULL,PennController,11,_Trial_,Start,1737114079853,NULL
1737116940,bdf066947686ab2cd01768f202816430,PennController,10,0,frases,NULL,Selector,classificacao,Selection,positiva,1737114083501,negativa;neutra;positiva
1737116940,bdf066947686ab2cd01768f202816430,PennController,10,0,frases,NULL,PennController,11,_Trial_,End,1737114083501,NULL
1737116940,bdf066947686ab2cd01768f202816430,PennController,11,0,frases,NULL,PennController,12,_Trial_,Start,1737114083502,NULL
1737116940,bdf066947686ab2cd01768f202816430,PennController,11,0,frases,NULL,Selector,classificacao,Selection,positiva,1737114115884,negativa;neutra;positiva
1737116940,bdf066947686ab2cd01768f202816430,PennController,11,0,frases,NULL,PennController,12,_Trial_,End,1737114115885,NULL
1737116940,bdf066947686ab2cd01768f202816430,PennController,12,0,frases,NULL,PennController,13,_Trial_,Start,1737114115886,NULL
1737116940,bdf066947686ab2cd01768f202816430,PennController,12,0,frases,NULL,Selector,classificacao,Selection,negativa,1737114119876,negativa;neutra;positiva
1737116940,bdf066947686ab2cd01768f202816430,PennController,12,0,frases,NULL,PennController,13,_Trial_,End,1737114119877,NULL
1737116940,bdf066947686ab2cd01768f202816430,PennController,13,0,frases,NULL,PennController,14,_Trial_,Start,1737114119878,NULL
1737116940,bdf066947686ab2cd01768f202816430,PennController,13,0,frases,NULL,Selector,classificacao,Selection,negativa,1737114124255,negativa;neutra;positiva
1737116940,bdf066947686ab2cd01768f202816430,PennController,13,0,frases,NULL,PennController,14,_Trial_,End,1737114124256,NULL
1737116940,bdf066947686ab2cd01768f202816430,PennController,14,0,frases,NULL,PennController,15,_Trial_,Start,1737114124257,NULL
1737116940,bdf066947686ab2cd01768f202816430,PennController,14,0,frases,NULL,Selector,classificacao,Selection,positiva,1737114152549,negativa;neutra;positiva
1737116940,bdf066947686ab2cd01768f202816430,PennController,14,0,frases,NULL,PennController,15,_Trial_,End,1737114152550,NULL
1737116940,bdf066947686ab2cd01768f202816430,PennController,15,0,frases,NULL,PennController,16,_Trial_,Start,1737114152551,NULL
1737116940,bdf066947686ab2cd01768f202816430,PennController,15,0,frases,NULL,Selector,classificacao,Selection,neutra,1737114155804,negativa;neutra;positiva
1737116940,bdf066947686ab2cd01768f202816430,PennController,15,0,frases,NULL,PennController,16,_Trial_,End,1737114155805,NULL
1737116940,bdf066947686ab2cd01768f202816430,PennController,16,0,frases,NULL,PennController,17,_Trial_,Start,1737114155806,NULL
1737116940,bdf066947686ab2cd01768f202816430,PennController,16,0,frases,NULL,Selector,classificacao,Selection,neutra,1737114159532,negativa;neutra;positiva
1737116940,bdf066947686ab2cd01768f202816430,PennController,16,0,frases,NULL,PennController,17,_Trial_,End,1737114159533,NULL
1737116940,bdf066947686ab2cd01768f202816430,PennController,17,0,frases,NULL,PennController,18,_Trial_,Start,1737114159534,NULL
1737116940,bdf066947686ab2cd01768f202816430,PennController,17,0,frases,NULL,Selector,classificacao,Selection,negativa,1737114169901,negativa;neutra;positiva
1737116940,bdf066947686ab2cd01768f202816430,PennController,17,0,frases,NULL,PennController,18,_Trial_,End,1737114169902,NULL
1737116940,bdf066947686ab2cd01768f202816430,PennController,18,0,frases,NULL,PennController,19,_Trial_,Start,1737114169903,NULL
1737116940,bdf066947686ab2cd01768f202816430,PennController,18,0,frases,NULL,Selector,classificacao,Selection,negativa,1737114180435,negativa;neutra;positiva
1737116940,bdf066947686ab2cd01768f202816430,PennController,18,0,frases,NULL,PennController,19,_Trial_,End,1737114180436,NULL
1737116940,bdf066947686ab2cd01768f202816430,PennController,19,0,frases,NULL,PennController,20,_Trial_,Start,1737114180437,NULL
1737116940,bdf066947686ab2cd01768f202816430,PennController,19,0,frases,NULL,Selector,classificacao,Selection,neutra,1737114183575,negativa;neutra;positiva
1737116940,bdf066947686ab2cd01768f202816430,PennController,19,0,frases,NULL,PennController,20,_Trial_,End,1737114183575,NULL
1737116940,bdf066947686ab2cd01768f202816430,PennController,20,0,frases,NULL,PennController,21,_Trial_,Start,1737114183576,NULL
1737116940,bdf066947686ab2cd01768f202816430,PennController,20,0,frases,NULL,Selector,classificacao,Selection,neutra,1737114187325,negativa;neutra;positiva
1737116940,bdf066947686ab2cd01768f202816430,PennController,20,0,frases,NULL,PennController,21,_Trial_,End,1737114187326,NULL
1737116940,bdf066947686ab2cd01768f202816430,PennController,21,0,frases,NULL,PennController,22,_Trial_,Start,1737114187326,NULL
1737116940,bdf066947686ab2cd01768f202816430,PennController,21,0,frases,NULL,Selector,classificacao,Selection,negativa,1737114201827,negativa;neutra;positiva
1737116940,bdf066947686ab2cd01768f202816430,PennController,21,0,frases,NULL,PennController,22,_Trial_,End,1737114201828,NULL
1737116940,bdf066947686ab2cd01768f202816430,PennController,22,0,frases,NULL,PennController,23,_Trial_,Start,1737114201829,NULL
1737116940,bdf066947686ab2cd01768f202816430,PennController,22,0,frases,NULL,Selector,classificacao,Selection,negativa,1737114349165,negativa;neutra;positiva
1737116940,bdf066947686ab2cd01768f202816430,PennController,22,0,frases,NULL,PennController,23,_Trial_,End,1737114349165,NULL
1737116940,bdf066947686ab2cd01768f202816430,PennController,23,0,frases,NULL,PennController,24,_Trial_,Start,1737114349166,NULL
1737116940,bdf066947686ab2cd01768f202816430,PennController,23,0,frases,NULL,Selector,classificacao,Selection,negativa,1737114354559,negativa;neutra;positiva
1737116940,bdf066947686ab2cd01768f202816430,PennController,23,0,frases,NULL,PennController,24,_Trial_,End,1737114354560,NULL
1737116940,bdf066947686ab2cd01768f202816430,PennController,24,0,frases,NULL,PennController,25,_Trial_,Start,1737114354560,NULL
1737116940,bdf066947686ab2cd01768f202816430,PennController,24,0,frases,NULL,Selector,classificacao,Selection,neutra,1737114357457,negativa;neutra;positiva
1737116940,bdf066947686ab2cd01768f202816430,PennController,24,0,frases,NULL,PennController,25,_Trial_,End,1737114357458,NULL
1737116940,bdf066947686ab2cd01768f202816430,PennController,25,0,frases,NULL,PennController,26,_Trial_,Start,1737114357459,NULL
1737116940,bdf066947686ab2cd01768f202816430,PennController,25,0,frases,NULL,Selector,classificacao,Selection,neutra,1737114362242,negativa;neutra;positiva
1737116940,bdf066947686ab2cd01768f202816430,PennController,25,0,frases,NULL,PennController,26,_Trial_,End,1737114362243,NULL
1737116940,bdf066947686ab2cd01768f202816430,PennController,26,0,frases,NULL,PennController,27,_Trial_,Start,1737114362244,NULL
1737116940,bdf066947686ab2cd01768f202816430,PennController,26,0,frases,NULL,Selector,classificacao,Selection,neutra,1737114368672,negativa;neutra;positiva
1737116940,bdf066947686ab2cd01768f202816430,PennController,26,0,frases,NULL,PennController,27,_Trial_,End,1737114368672,NULL
1737116940,bdf066947686ab2cd01768f202816430,PennController,27,0,frases,NULL,PennController,28,_Trial_,Start,1737114368673,NULL
1737116940,bdf066947686ab2cd01768f202816430,PennController,27,0,frases,NULL,Selector,classificacao,Selection,neutra,1737114375796,negativa;neutra;positiva
1737116940,bdf066947686ab2cd01768f202816430,PennController,27,0,frases,NULL,PennController,28,_Trial_,End,1737114375797,NULL
1737116940,bdf066947686ab2cd01768f202816430,PennController,28,0,frases,NULL,PennController,29,_Trial_,Start,1737114375798,NULL
1737116940,bdf066947686ab2cd01768f202816430,PennController,28,0,frases,NULL,Selector,classificacao,Selection,neutra,1737114383880,negativa;neutra;positiva
1737116940,bdf066947686ab2cd01768f202816430,PennController,28,0,frases,NULL,PennController,29,_Trial_,End,1737114383880,NULL
1737116940,bdf066947686ab2cd01768f202816430,PennController,29,0,frases,NULL,PennController,30,_Trial_,Start,1737114383881,NULL
1737116940,bdf066947686ab2cd01768f202816430,PennController,29,0,frases,NULL,Selector,classificacao,Selection,neutra,1737114385868,negativa;neutra;positiva
1737116940,bdf066947686ab2cd01768f202816430,PennController,29,0,frases,NULL,PennController,30,_Trial_,End,1737114385869,NULL
1737116940,bdf066947686ab2cd01768f202816430,PennController,30,0,frases,NULL,PennController,31,_Trial_,Start,1737114385870,NULL
1737116940,bdf066947686ab2cd01768f202816430,PennController,30,0,frases,NULL,Selector,classificacao,Selection,neutra,1737114390702,negativa;neutra;positiva
1737116940,bdf066947686ab2cd01768f202816430,PennController,30,0,frases,NULL,PennController,31,_Trial_,End,1737114390703,NULL
1737116940,bdf066947686ab2cd01768f202816430,PennController,31,0,frases,NULL,PennController,32,_Trial_,Start,1737114390703,NULL
1737116940,bdf066947686ab2cd01768f202816430,PennController,31,0,frases,NULL,Selector,classificacao,Selection,neutra,1737114396143,negativa;neutra;positiva
1737116940,bdf066947686ab2cd01768f202816430,PennController,31,0,frases,NULL,PennController,32,_Trial_,End,1737114396144,NULL
1737116940,bdf066947686ab2cd01768f202816430,PennController,32,0,frases,NULL,PennController,33,_Trial_,Start,1737114396144,NULL
1737116940,bdf066947686ab2cd01768f202816430,PennController,32,0,frases,NULL,Selector,classificacao,Selection,neutra,1737114409611,negativa;neutra;positiva
1737116940,bdf066947686ab2cd01768f202816430,PennController,32,0,frases,NULL,PennController,33,_Trial_,End,1737114409612,NULL
1737116940,bdf066947686ab2cd01768f202816430,PennController,33,0,frases,NULL,PennController,34,_Trial_,Start,1737114409612,NULL
1737116940,bdf066947686ab2cd01768f202816430,PennController,33,0,frases,NULL,Selector,classificacao,Selection,neutra,1737114417223,negativa;neutra;positiva
1737116940,bdf066947686ab2cd01768f202816430,PennController,33,0,frases,NULL,PennController,34,_Trial_,End,1737114417224,NULL
1737116940,bdf066947686ab2cd01768f202816430,PennController,34,0,frases,NULL,PennController,35,_Trial_,Start,1737114417224,NULL
1737116940,bdf066947686ab2cd01768f202816430,PennController,34,0,frases,NULL,Selector,classificacao,Selection,neutra,1737114429849,negativa;neutra;positiva
1737116940,bdf066947686ab2cd01768f202816430,PennController,34,0,frases,NULL,PennController,35,_Trial_,End,1737114429849,NULL
1737116940,bdf066947686ab2cd01768f202816430,PennController,35,0,frases,NULL,PennController,36,_Trial_,Start,1737114429850,NULL
1737116940,bdf066947686ab2cd01768f202816430,PennController,35,0,frases,NULL,Selector,classificacao,Selection,neutra,1737114440266,negativa;neutra;positiva
1737116940,bdf066947686ab2cd01768f202816430,PennController,35,0,frases,NULL,PennController,36,_Trial_,End,1737114440267,NULL
1737116940,bdf066947686ab2cd01768f202816430,PennController,36,0,frases,NULL,PennController,37,_Trial_,Start,1737114440267,NULL
1737116940,bdf066947686ab2cd01768f202816430,PennController,36,0,frases,NULL,Selector,classificacao,Selection,neutra,1737114443390,negativa;neutra;positiva
1737116940,bdf066947686ab2cd01768f202816430,PennController,36,0,frases,NULL,PennController,37,_Trial_,End,1737114443391,NULL
1737116940,bdf066947686ab2cd01768f202816430,PennController,37,0,frases,NULL,PennController,38,_Trial_,Start,1737114443392,NULL
1737116940,bdf066947686ab2cd01768f202816430,PennController,37,0,frases,NULL,Selector,classificacao,Selection,positiva,1737114447785,negativa;neutra;positiva
1737116940,bdf066947686ab2cd01768f202816430,PennController,37,0,frases,NULL,PennController,38,_Trial_,End,1737114447785,NULL
1737116940,bdf066947686ab2cd01768f202816430,PennController,38,0,frases,NULL,PennController,39,_Trial_,Start,1737114447786,NULL
1737116940,bdf066947686ab2cd01768f202816430,PennController,38,0,frases,NULL,Selector,classificacao,Selection,negativa,1737114454411,negativa;neutra;positiva
1737116940,bdf066947686ab2cd01768f202816430,PennController,38,0,frases,NULL,PennController,39,_Trial_,End,1737114454411,NULL
1737116940,bdf066947686ab2cd01768f202816430,PennController,39,0,frases,NULL,PennController,40,_Trial_,Start,1737114454412,NULL
1737116940,bdf066947686ab2cd01768f202816430,PennController,39,0,frases,NULL,Selector,classificacao,Selection,neutra,1737114464865,negativa;neutra;positiva
1737116940,bdf066947686ab2cd01768f202816430,PennController,39,0,frases,NULL,PennController,40,_Trial_,End,1737114464866,NULL
1737116940,bdf066947686ab2cd01768f202816430,PennController,40,0,frases,NULL,PennController,41,_Trial_,Start,1737114464867,NULL
1737116940,bdf066947686ab2cd01768f202816430,PennController,40,0,frases,NULL,Selector,classificacao,Selection,negativa,1737114468107,negativa;neutra;positiva
1737116940,bdf066947686ab2cd01768f202816430,PennController,40,0,frases,NULL,PennController,41,_Trial_,End,1737114468108,NULL
1737116940,bdf066947686ab2cd01768f202816430,PennController,41,0,frases,NULL,PennController,42,_Trial_,Start,1737114468109,NULL
1737116940,bdf066947686ab2cd01768f202816430,PennController,41,0,frases,NULL,Selector,classificacao,Selection,neutra,1737114470212,negativa;neutra;positiva
1737116940,bdf066947686ab2cd01768f202816430,PennController,41,0,frases,NULL,PennController,42,_Trial_,End,1737114470213,NULL
1737116940,bdf066947686ab2cd01768f202816430,PennController,42,0,frases,NULL,PennController,43,_Trial_,Start,1737114470214,NULL
1737116940,bdf066947686ab2cd01768f202816430,PennController,42,0,frases,NULL,Selector,classificacao,Selection,positiva,1737114484552,negativa;neutra;positiva
1737116940,bdf066947686ab2cd01768f202816430,PennController,42,0,frases,NULL,PennController,43,_Trial_,End,1737114484553,NULL
1737116940,bdf066947686ab2cd01768f202816430,PennController,43,0,frases,NULL,PennController,44,_Trial_,Start,1737114484554,NULL
1737116940,bdf066947686ab2cd01768f202816430,PennController,43,0,frases,NULL,Selector,classificacao,Selection,negativa,1737114493957,negativa;neutra;positiva
1737116940,bdf066947686ab2cd01768f202816430,PennController,43,0,frases,NULL,PennController,44,_Trial_,End,1737114493958,NULL
1737116940,bdf066947686ab2cd01768f202816430,PennController,44,0,frases,NULL,PennController,45,_Trial_,Start,1737114493959,NULL
1737116940,bdf066947686ab2cd01768f202816430,PennController,44,0,frases,NULL,Selector,classificacao,Selection,neutra,1737114497089,negativa;neutra;positiva
1737116940,bdf066947686ab2cd01768f202816430,PennController,44,0,frases,NULL,PennController,45,_Trial_,End,1737114497090,NULL
1737116940,bdf066947686ab2cd01768f202816430,PennController,45,0,frases,NULL,PennController,46,_Trial_,Start,1737114497091,NULL
1737116940,bdf066947686ab2cd01768f202816430,PennController,45,0,frases,NULL,Selector,classificacao,Selection,negativa,1737114504598,negativa;neutra;positiva
1737116940,bdf066947686ab2cd01768f202816430,PennController,45,0,frases,NULL,PennController,46,_Trial_,End,1737114504599,NULL
1737116940,bdf066947686ab2cd01768f202816430,PennController,46,0,frases,NULL,PennController,47,_Trial_,Start,1737114504600,NULL
1737116940,bdf066947686ab2cd01768f202816430,PennController,46,0,frases,NULL,Selector,classificacao,Selection,neutra,1737114507583,negativa;neutra;positiva
1737116940,bdf066947686ab2cd01768f202816430,PennController,46,0,frases,NULL,PennController,47,_Trial_,End,1737114507584,NULL
1737116940,bdf066947686ab2cd01768f202816430,PennController,47,0,frases,NULL,PennController,48,_Trial_,Start,1737114507585,NULL
1737116940,bdf066947686ab2cd01768f202816430,PennController,47,0,frases,NULL,Selector,classificacao,Selection,neutra,1737114515171,negativa;neutra;positiva
1737116940,bdf066947686ab2cd01768f202816430,PennController,47,0,frases,NULL,PennController,48,_Trial_,End,1737114515172,NULL
1737116940,bdf066947686ab2cd01768f202816430,PennController,48,0,frases,NULL,PennController,49,_Trial_,Start,1737114515172,NULL
1737116940,bdf066947686ab2cd01768f202816430,PennController,48,0,frases,NULL,Selector,classificacao,Selection,neutra,1737114519078,negativa;neutra;positiva
1737116940,bdf066947686ab2cd01768f202816430,PennController,48,0,frases,NULL,PennController,49,_Trial_,End,1737114519079,NULL
1737116940,bdf066947686ab2cd01768f202816430,PennController,49,0,frases,NULL,PennController,50,_Trial_,Start,1737114519080,NULL
1737116940,bdf066947686ab2cd01768f202816430,PennController,49,0,frases,NULL,Selector,classificacao,Selection,neutra,1737114525181,negativa;neutra;positiva
1737116940,bdf066947686ab2cd01768f202816430,PennController,49,0,frases,NULL,PennController,50,_Trial_,End,1737114525181,NULL
1737116940,bdf066947686ab2cd01768f202816430,PennController,50,0,frases,NULL,PennController,51,_Trial_,Start,1737114525182,NULL
1737116940,bdf066947686ab2cd01768f202816430,PennController,50,0,frases,NULL,Selector,classificacao,Selection,neutra,1737114532081,negativa;neutra;positiva
1737116940,bdf066947686ab2cd01768f202816430,PennController,50,0,frases,NULL,PennController,51,_Trial_,End,1737114532082,NULL
1737116940,bdf066947686ab2cd01768f202816430,PennController,51,0,frases,NULL,PennController,52,_Trial_,Start,1737114532083,NULL
1737116940,bdf066947686ab2cd01768f202816430,PennController,51,0,frases,NULL,Selector,classificacao,Selection,negativa,1737114547374,negativa;neutra;positiva
1737116940,bdf066947686ab2cd01768f202816430,PennController,51,0,frases,NULL,PennController,52,_Trial_,End,1737114547376,NULL
1737116940,bdf066947686ab2cd01768f202816430,PennController,52,0,frases,NULL,PennController,53,_Trial_,Start,1737114547377,NULL
1737116940,bdf066947686ab2cd01768f202816430,PennController,52,0,frases,NULL,Selector,classificacao,Selection,negativa,1737114556334,negativa;neutra;positiva
1737116940,bdf066947686ab2cd01768f202816430,PennController,52,0,frases,NULL,PennController,53,_Trial_,End,1737114556335,NULL
1737116940,bdf066947686ab2cd01768f202816430,PennController,53,0,frases,NULL,PennController,54,_Trial_,Start,1737114556336,NULL
1737116940,bdf066947686ab2cd01768f202816430,PennController,53,0,frases,NULL,Selector,classificacao,Selection,negativa,1737114560210,negativa;neutra;positiva
1737116940,bdf066947686ab2cd01768f202816430,PennController,53,0,frases,NULL,PennController,54,_Trial_,End,1737114560211,NULL
1737116940,bdf066947686ab2cd01768f202816430,PennController,54,0,frases,NULL,PennController,55,_Trial_,Start,1737114560212,NULL
1737116940,bdf066947686ab2cd01768f202816430,PennController,54,0,frases,NULL,Selector,classificacao,Selection,neutra,1737114566601,negativa;neutra;positiva
1737116940,bdf066947686ab2cd01768f202816430,PennController,54,0,frases,NULL,PennController,55,_Trial_,End,1737114566602,NULL
1737116940,bdf066947686ab2cd01768f202816430,PennController,55,0,frases,NULL,PennController,56,_Trial_,Start,1737114566603,NULL
1737116940,bdf066947686ab2cd01768f202816430,PennController,55,0,frases,NULL,Selector,classificacao,Selection,negativa,1737114573060,negativa;neutra;positiva
1737116940,bdf066947686ab2cd01768f202816430,PennController,55,0,frases,NULL,PennController,56,_Trial_,End,1737114573061,NULL
1737116940,bdf066947686ab2cd01768f202816430,PennController,56,0,frases,NULL,PennController,57,_Trial_,Start,1737114573062,NULL
1737116940,bdf066947686ab2cd01768f202816430,PennController,56,0,frases,NULL,Selector,classificacao,Selection,neutra,1737114580766,negativa;neutra;positiva
1737116940,bdf066947686ab2cd01768f202816430,PennController,56,0,frases,NULL,PennController,57,_Trial_,End,1737114580767,NULL
1737116940,bdf066947686ab2cd01768f202816430,PennController,57,0,frases,NULL,PennController,58,_Trial_,Start,1737114580768,NULL
1737116940,bdf066947686ab2cd01768f202816430,PennController,57,0,frases,NULL,Selector,classificacao,Selection,neutra,1737114594582,negativa;neutra;positiva
1737116940,bdf066947686ab2cd01768f202816430,PennController,57,0,frases,NULL,PennController,58,_Trial_,End,1737114594583,NULL
1737116940,bdf066947686ab2cd01768f202816430,PennController,58,0,frases,NULL,PennController,59,_Trial_,Start,1737114594584,NULL
1737116940,bdf066947686ab2cd01768f202816430,PennController,58,0,frases,NULL,Selector,classificacao,Selection,negativa,1737114606079,negativa;neutra;positiva
1737116940,bdf066947686ab2cd01768f202816430,PennController,58,0,frases,NULL,PennController,59,_Trial_,End,1737114606080,NULL
1737116940,bdf066947686ab2cd01768f202816430,PennController,59,0,frases,NULL,PennController,60,_Trial_,Start,1737114606080,NULL
1737116940,bdf066947686ab2cd01768f202816430,PennController,59,0,frases,NULL,Selector,classificacao,Selection,neutra,1737114619250,negativa;neutra;positiva
1737116940,bdf066947686ab2cd01768f202816430,PennController,59,0,frases,NULL,PennController,60,_Trial_,End,1737114619251,NULL
1737116940,bdf066947686ab2cd01768f202816430,PennController,60,0,frases,NULL,PennController,61,_Trial_,Start,1737114619252,NULL
1737116940,bdf066947686ab2cd01768f202816430,PennController,60,0,frases,NULL,Selector,classificacao,Selection,neutra,1737114621732,negativa;neutra;positiva
1737116940,bdf066947686ab2cd01768f202816430,PennController,60,0,frases,NULL,PennController,61,_Trial_,End,1737114621733,NULL
1737116940,bdf066947686ab2cd01768f202816430,PennController,61,0,frases,NULL,PennController,62,_Trial_,Start,1737114621734,NULL
1737116940,bdf066947686ab2cd01768f202816430,PennController,61,0,frases,NULL,Selector,classificacao,Selection,neutra,1737114671015,negativa;neutra;positiva
1737116940,bdf066947686ab2cd01768f202816430,PennController,61,0,frases,NULL,PennController,62,_Trial_,End,1737114671016,NULL
1737116940,bdf066947686ab2cd01768f202816430,PennController,62,0,frases,NULL,PennController,63,_Trial_,Start,1737114671017,NULL
1737116940,bdf066947686ab2cd01768f202816430,PennController,62,0,frases,NULL,Selector,classificacao,Selection,positiva,1737114680536,negativa;neutra;positiva
1737116940,bdf066947686ab2cd01768f202816430,PennController,62,0,frases,NULL,PennController,63,_Trial_,End,1737114680537,NULL
1737116940,bdf066947686ab2cd01768f202816430,PennController,63,0,frases,NULL,PennController,64,_Trial_,Start,1737114680538,NULL
1737116940,bdf066947686ab2cd01768f202816430,PennController,63,0,frases,NULL,Selector,classificacao,Selection,neutra,1737114685469,negativa;neutra;positiva
1737116940,bdf066947686ab2cd01768f202816430,PennController,63,0,frases,NULL,PennController,64,_Trial_,End,1737114685470,NULL
1737116940,bdf066947686ab2cd01768f202816430,PennController,64,0,frases,NULL,PennController,65,_Trial_,Start,1737114685470,NULL
1737116940,bdf066947686ab2cd01768f202816430,PennController,64,0,frases,NULL,Selector,classificacao,Selection,positiva,1737114688351,negativa;neutra;positiva
1737116940,bdf066947686ab2cd01768f202816430,PennController,64,0,frases,NULL,PennController,65,_Trial_,End,1737114688351,NULL
1737116940,bdf066947686ab2cd01768f202816430,PennController,65,0,frases,NULL,PennController,66,_Trial_,Start,1737114688352,NULL
1737116940,bdf066947686ab2cd01768f202816430,PennController,65,0,frases,NULL,Selector,classificacao,Selection,neutra,1737114692408,negativa;neutra;positiva
1737116940,bdf066947686ab2cd01768f202816430,PennController,65,0,frases,NULL,PennController,66,_Trial_,End,1737114692409,NULL
1737116940,bdf066947686ab2cd01768f202816430,PennController,66,0,frases,NULL,PennController,67,_Trial_,Start,1737114692409,NULL
1737116940,bdf066947686ab2cd01768f202816430,PennController,66,0,frases,NULL,Selector,classificacao,Selection,negativa,1737114697730,negativa;neutra;positiva
1737116940,bdf066947686ab2cd01768f202816430,PennController,66,0,frases,NULL,PennController,67,_Trial_,End,1737114697731,NULL
1737116940,bdf066947686ab2cd01768f202816430,PennController,67,0,frases,NULL,PennController,68,_Trial_,Start,1737114697732,NULL
1737116940,bdf066947686ab2cd01768f202816430,PennController,67,0,frases,NULL,Selector,classificacao,Selection,negativa,1737114708029,negativa;neutra;positiva
1737116940,bdf066947686ab2cd01768f202816430,PennController,67,0,frases,NULL,PennController,68,_Trial_,End,1737114708030,NULL
1737116940,bdf066947686ab2cd01768f202816430,PennController,68,0,frases,NULL,PennController,69,_Trial_,Start,1737114708031,NULL
1737116940,bdf066947686ab2cd01768f202816430,PennController,68,0,frases,NULL,Selector,classificacao,Selection,neutra,1737114712804,negativa;neutra;positiva
1737116940,bdf066947686ab2cd01768f202816430,PennController,68,0,frases,NULL,PennController,69,_Trial_,End,1737114712805,NULL
1737116940,bdf066947686ab2cd01768f202816430,PennController,69,0,frases,NULL,PennController,70,_Trial_,Start,1737114712806,NULL
1737116940,bdf066947686ab2cd01768f202816430,PennController,69,0,frases,NULL,Selector,classificacao,Selection,negativa,1737114718630,negativa;neutra;positiva
1737116940,bdf066947686ab2cd01768f202816430,PennController,69,0,frases,NULL,PennController,70,_Trial_,End,1737114718631,NULL
1737116940,bdf066947686ab2cd01768f202816430,PennController,70,0,frases,NULL,PennController,71,_Trial_,Start,1737114718632,NULL
1737116940,bdf066947686ab2cd01768f202816430,PennController,70,0,frases,NULL,Selector,classificacao,Selection,neutra,1737114725912,negativa;neutra;positiva
1737116940,bdf066947686ab2cd01768f202816430,PennController,70,0,frases,NULL,PennController,71,_Trial_,End,1737114725913,NULL
1737116940,bdf066947686ab2cd01768f202816430,PennController,71,0,frases,NULL,PennController,72,_Trial_,Start,1737114725914,NULL
1737116940,bdf066947686ab2cd01768f202816430,PennController,71,0,frases,NULL,Selector,classificacao,Selection,negativa,1737114733397,negativa;neutra;positiva
1737116940,bdf066947686ab2cd01768f202816430,PennController,71,0,frases,NULL,PennController,72,_Trial_,End,1737114733397,NULL
1737116940,bdf066947686ab2cd01768f202816430,PennController,72,0,frases,NULL,PennController,73,_Trial_,Start,1737114733398,NULL
1737116940,bdf066947686ab2cd01768f202816430,PennController,72,0,frases,NULL,Selector,classificacao,Selection,neutra,1737114740162,negativa;neutra;positiva
1737116940,bdf066947686ab2cd01768f202816430,PennController,72,0,frases,NULL,PennController,73,_Trial_,End,1737114740164,NULL
1737116940,bdf066947686ab2cd01768f202816430,PennController,73,0,frases,NULL,PennController,74,_Trial_,Start,1737114740164,NULL
1737116940,bdf066947686ab2cd01768f202816430,PennController,73,0,frases,NULL,Selector,classificacao,Selection,neutra,1737114748140,negativa;neutra;positiva
1737116940,bdf066947686ab2cd01768f202816430,PennController,73,0,frases,NULL,PennController,74,_Trial_,End,1737114748141,NULL
1737116940,bdf066947686ab2cd01768f202816430,PennController,74,0,frases,NULL,PennController,75,_Trial_,Start,1737114748142,NULL
1737116940,bdf066947686ab2cd01768f202816430,PennController,74,0,frases,NULL,Selector,classificacao,Selection,neutra,1737114752126,negativa;neutra;positiva
1737116940,bdf066947686ab2cd01768f202816430,PennController,74,0,frases,NULL,PennController,75,_Trial_,End,1737114752127,NULL
1737116940,bdf066947686ab2cd01768f202816430,PennController,75,0,frases,NULL,PennController,76,_Trial_,Start,1737114752127,NULL
1737116940,bdf066947686ab2cd01768f202816430,PennController,75,0,frases,NULL,Selector,classificacao,Selection,neutra,1737114755116,negativa;neutra;positiva
1737116940,bdf066947686ab2cd01768f202816430,PennController,75,0,frases,NULL,PennController,76,_Trial_,End,1737114755117,NULL
1737116940,bdf066947686ab2cd01768f202816430,PennController,76,0,frases,NULL,PennController,77,_Trial_,Start,1737114755118,NULL
1737116940,bdf066947686ab2cd01768f202816430,PennController,76,0,frases,NULL,Selector,classificacao,Selection,negativa,1737114764238,negativa;neutra;positiva
1737116940,bdf066947686ab2cd01768f202816430,PennController,76,0,frases,NULL,PennController,77,_Trial_,End,1737114764240,NULL
1737116940,bdf066947686ab2cd01768f202816430,PennController,77,0,frases,NULL,PennController,78,_Trial_,Start,1737114764241,NULL
1737116940,bdf066947686ab2cd01768f202816430,PennController,77,0,frases,NULL,Selector,classificacao,Selection,neutra,1737114766720,negativa;neutra;positiva
1737116940,bdf066947686ab2cd01768f202816430,PennController,77,0,frases,NULL,PennController,78,_Trial_,End,1737114766721,NULL
1737116940,bdf066947686ab2cd01768f202816430,PennController,78,0,frases,NULL,PennController,79,_Trial_,Start,1737114766722,NULL
1737116940,bdf066947686ab2cd01768f202816430,PennController,78,0,frases,NULL,Selector,classificacao,Selection,negativa,1737114779938,negativa;neutra;positiva
1737116940,bdf066947686ab2cd01768f202816430,PennController,78,0,frases,NULL,PennController,79,_Trial_,End,1737114779939,NULL
1737116940,bdf066947686ab2cd01768f202816430,PennController,79,0,frases,NULL,PennController,80,_Trial_,Start,1737114779940,NULL
1737116940,bdf066947686ab2cd01768f202816430,PennController,79,0,frases,NULL,Selector,classificacao,Selection,neutra,1737114784361,negativa;neutra;positiva
1737116940,bdf066947686ab2cd01768f202816430,PennController,79,0,frases,NULL,PennController,80,_Trial_,End,1737114784361,NULL
1737116940,bdf066947686ab2cd01768f202816430,PennController,80,0,frases,NULL,PennController,81,_Trial_,Start,1737114784362,NULL
1737116940,bdf066947686ab2cd01768f202816430,PennController,80,0,frases,NULL,Selector,classificacao,Selection,neutra,1737114795557,negativa;neutra;positiva
1737116940,bdf066947686ab2cd01768f202816430,PennController,80,0,frases,NULL,PennController,81,_Trial_,End,1737114795557,NULL
1737116940,bdf066947686ab2cd01768f202816430,PennController,81,0,frases,NULL,PennController,82,_Trial_,Start,1737114795558,NULL
1737116940,bdf066947686ab2cd01768f202816430,PennController,81,0,frases,NULL,Selector,classificacao,Selection,neutra,1737114798783,negativa;neutra;positiva
1737116940,bdf066947686ab2cd01768f202816430,PennController,81,0,frases,NULL,PennController,82,_Trial_,End,1737114798783,NULL
1737116940,bdf066947686ab2cd01768f202816430,PennController,82,0,frases,NULL,PennController,83,_Trial_,Start,1737114798784,NULL
1737116940,bdf066947686ab2cd01768f202816430,PennController,82,0,frases,NULL,Selector,classificacao,Selection,neutra,1737114806072,negativa;neutra;positiva
1737116940,bdf066947686ab2cd01768f202816430,PennController,82,0,frases,NULL,PennController,83,_Trial_,End,1737114806073,NULL
1737116940,bdf066947686ab2cd01768f202816430,PennController,83,0,frases,NULL,PennController,84,_Trial_,Start,1737114806073,NULL
1737116940,bdf066947686ab2cd01768f202816430,PennController,83,0,frases,NULL,Selector,classificacao,Selection,negativa,1737114809124,negativa;neutra;positiva
1737116940,bdf066947686ab2cd01768f202816430,PennController,83,0,frases,NULL,PennController,84,_Trial_,End,1737114809125,NULL
1737116940,bdf066947686ab2cd01768f202816430,PennController,84,0,frases,NULL,PennController,85,_Trial_,Start,1737114809126,NULL
1737116940,bdf066947686ab2cd01768f202816430,PennController,84,0,frases,NULL,Selector,classificacao,Selection,neutra,1737114820855,negativa;neutra;positiva
1737116940,bdf066947686ab2cd01768f202816430,PennController,84,0,frases,NULL,PennController,85,_Trial_,End,1737114820856,NULL
1737116940,bdf066947686ab2cd01768f202816430,PennController,85,0,frases,NULL,PennController,86,_Trial_,Start,1737114820857,NULL
1737116940,bdf066947686ab2cd01768f202816430,PennController,85,0,frases,NULL,Selector,classificacao,Selection,negativa,1737114823916,negativa;neutra;positiva
1737116940,bdf066947686ab2cd01768f202816430,PennController,85,0,frases,NULL,PennController,86,_Trial_,End,1737114823917,NULL
1737116940,bdf066947686ab2cd01768f202816430,PennController,86,0,frases,NULL,PennController,87,_Trial_,Start,1737114823918,NULL
1737116940,bdf066947686ab2cd01768f202816430,PennController,86,0,frases,NULL,Selector,classificacao,Selection,negativa,1737114832756,negativa;neutra;positiva
1737116940,bdf066947686ab2cd01768f202816430,PennController,86,0,frases,NULL,PennController,87,_Trial_,End,1737114832757,NULL
1737116940,bdf066947686ab2cd01768f202816430,PennController,87,0,frases,NULL,PennController,88,_Trial_,Start,1737114832758,NULL
1737116940,bdf066947686ab2cd01768f202816430,PennController,87,0,frases,NULL,Selector,classificacao,Selection,neutra,1737114846186,negativa;neutra;positiva
1737116940,bdf066947686ab2cd01768f202816430,PennController,87,0,frases,NULL,PennController,88,_Trial_,End,1737114846187,NULL
1737116940,bdf066947686ab2cd01768f202816430,PennController,88,0,frases,NULL,PennController,89,_Trial_,Start,1737114846189,NULL
1737116940,bdf066947686ab2cd01768f202816430,PennController,88,0,frases,NULL,Selector,classificacao,Selection,neutra,1737114849474,negativa;neutra;positiva
1737116940,bdf066947686ab2cd01768f202816430,PennController,88,0,frases,NULL,PennController,89,_Trial_,End,1737114849475,NULL
1737116940,bdf066947686ab2cd01768f202816430,PennController,89,0,frases,NULL,PennController,90,_Trial_,Start,1737114849476,NULL
1737116940,bdf066947686ab2cd01768f202816430,PennController,89,0,frases,NULL,Selector,classificacao,Selection,neutra,1737114851465,negativa;neutra;positiva
1737116940,bdf066947686ab2cd01768f202816430,PennController,89,0,frases,NULL,PennController,90,_Trial_,End,1737114851466,NULL
1737116940,bdf066947686ab2cd01768f202816430,PennController,90,0,frases,NULL,PennController,91,_Trial_,Start,1737114851466,NULL
1737116940,bdf066947686ab2cd01768f202816430,PennController,90,0,frases,NULL,Selector,classificacao,Selection,neutra,1737114855558,negativa;neutra;positiva
