#
# Results on Thu, 23 Jan 2025 17:39:14 GMT
# USER AGENT: Mozilla/5.0 (Windows NT 10.0; Win64; x64; rv:134.0) Gecko/20100101 Firefox/134.0
# Design number was non-random = 0
#
# Columns below this comment are as follows:
# 1. Results reception time.
# 2. MD5 hash of participant's IP address.
# 3. Controller name.
# 4. Order number of item.
# 5. Inner element number.
# 6. Label.
# 7. Latin Square Group.
# 8. PennElementType.
# 9. PennElementName.
# 10. Parameter.
# 11. Value.
# 12. EventTime.
# 13. Comments.
1737653954,bc2584302fffead698e1809107a60040,PennController,0,0,TCLE,NULL,PennController,0,_Trial_,Start,1737653280891,NULL
1737653954,bc2584302fffead698e1809107a60040,PennController,0,0,TCLE,NULL,PennController,0,_Trial_,End,1737653297896,NULL
1737653954,bc2584302fffead698e1809107a60040,PennController,3,0,instrucoes,NULL,PennController,3,_Trial_,Start,1737653297900,NULL
1737653954,bc2584302fffead698e1809107a60040,PennController,3,0,instrucoes,NULL,PennController,3,_Trial_,End,1737653299223,NULL
1737653954,bc2584302fffead698e1809107a60040,PennController,1,0,genero,NULL,PennController,1,_Trial_,Start,1737653299224,NULL
1737653954,bc2584302fffead698e1809107a60040,PennController,1,0,genero,NULL,DropDown,selecionaGenero,Selected,Masculino,1737653300942,0
1737653954,bc2584302fffead698e1809107a60040,PennController,1,0,genero,NULL,PennController,1,_Trial_,End,1737653301750,NULL
1737653954,bc2584302fffead698e1809107a60040,PennController,4,0,frases,NULL,PennController,5,_Trial_,Start,1737653301751,NULL
1737653954,bc2584302fffead698e1809107a60040,PennController,4,0,frases,NULL,Selector,classificacao,Selection,negativa,1737653306423,negativa;neutra;positiva
1737653954,bc2584302fffead698e1809107a60040,PennController,4,0,frases,NULL,PennController,5,_Trial_,End,1737653306424,NULL
1737653954,bc2584302fffead698e1809107a60040,PennController,5,0,frases,NULL,PennController,6,_Trial_,Start,1737653306425,NULL
1737653954,bc2584302fffead698e1809107a60040,PennController,5,0,frases,NULL,Selector,classificacao,Selection,negativa,1737653311053,negativa;neutra;positiva
1737653954,bc2584302fffead698e1809107a60040,PennController,5,0,frases,NULL,PennController,6,_Trial_,End,1737653311055,NULL
1737653954,bc2584302fffead698e1809107a60040,PennController,6,0,frases,NULL,PennController,7,_Trial_,Start,1737653311056,NULL
1737653954,bc2584302fffead698e1809107a60040,PennController,6,0,frases,NULL,Selector,classificacao,Selection,positiva,1737653313143,negativa;neutra;positiva
1737653954,bc2584302fffead698e1809107a60040,PennController,6,0,frases,NULL,PennController,7,_Trial_,End,1737653313144,NULL
1737653954,bc2584302fffead698e1809107a60040,PennController,7,0,frases,NULL,PennController,8,_Trial_,Start,1737653313145,NULL
1737653954,bc2584302fffead698e1809107a60040,PennController,7,0,frases,NULL,Selector,classificacao,Selection,neutra,1737653315821,negativa;neutra;positiva
1737653954,bc2584302fffead698e1809107a60040,PennController,7,0,frases,NULL,PennController,8,_Trial_,End,1737653315823,NULL
1737653954,bc2584302fffead698e1809107a60040,PennController,8,0,frases,NULL,PennController,9,_Trial_,Start,1737653315823,NULL
1737653954,bc2584302fffead698e1809107a60040,PennController,8,0,frases,NULL,Selector,classificacao,Selection,neutra,1737653320614,negativa;neutra;positiva
1737653954,bc2584302fffead698e1809107a60040,PennController,8,0,frases,NULL,PennController,9,_Trial_,End,1737653320615,NULL
1737653954,bc2584302fffead698e1809107a60040,PennController,9,0,frases,NULL,PennController,10,_Trial_,Start,1737653320616,NULL
1737653954,bc2584302fffead698e1809107a60040,PennController,9,0,frases,NULL,Selector,classificacao,Selection,neutra,1737653323134,negativa;neutra;positiva
1737653954,bc2584302fffead698e1809107a60040,PennController,9,0,frases,NULL,PennController,10,_Trial_,End,1737653323135,NULL
1737653954,bc2584302fffead698e1809107a60040,PennController,10,0,frases,NULL,PennController,11,_Trial_,Start,1737653323136,NULL
1737653954,bc2584302fffead698e1809107a60040,PennController,10,0,frases,NULL,Selector,classificacao,Selection,positiva,1737653328983,negativa;neutra;positiva
1737653954,bc2584302fffead698e1809107a60040,PennController,10,0,frases,NULL,PennController,11,_Trial_,End,1737653328984,NULL
1737653954,bc2584302fffead698e1809107a60040,PennController,11,0,frases,NULL,PennController,12,_Trial_,Start,1737653328985,NULL
1737653954,bc2584302fffead698e1809107a60040,PennController,11,0,frases,NULL,Selector,classificacao,Selection,negativa,1737653334751,negativa;neutra;positiva
1737653954,bc2584302fffead698e1809107a60040,PennController,11,0,frases,NULL,PennController,12,_Trial_,End,1737653334751,NULL
1737653954,bc2584302fffead698e1809107a60040,PennController,12,0,frases,NULL,PennController,13,_Trial_,Start,1737653334752,NULL
1737653954,bc2584302fffead698e1809107a60040,PennController,12,0,frases,NULL,Selector,classificacao,Selection,positiva,1737653337647,negativa;neutra;positiva
1737653954,bc2584302fffead698e1809107a60040,PennController,12,0,frases,NULL,PennController,13,_Trial_,End,1737653337648,NULL
1737653954,bc2584302fffead698e1809107a60040,PennController,13,0,frases,NULL,PennController,14,_Trial_,Start,1737653337649,NULL
1737653954,bc2584302fffead698e1809107a60040,PennController,13,0,frases,NULL,Selector,classificacao,Selection,negativa,1737653342919,negativa;neutra;positiva
1737653954,bc2584302fffead698e1809107a60040,PennController,13,0,frases,NULL,PennController,14,_Trial_,End,1737653342919,NULL
1737653954,bc2584302fffead698e1809107a60040,PennController,14,0,frases,NULL,PennController,15,_Trial_,Start,1737653342921,NULL
1737653954,bc2584302fffead698e1809107a60040,PennController,14,0,frases,NULL,Selector,classificacao,Selection,positiva,1737653345975,negativa;neutra;positiva
1737653954,bc2584302fffead698e1809107a60040,PennController,14,0,frases,NULL,PennController,15,_Trial_,End,1737653345975,NULL
1737653954,bc2584302fffead698e1809107a60040,PennController,15,0,frases,NULL,PennController,16,_Trial_,Start,1737653345977,NULL
1737653954,bc2584302fffead698e1809107a60040,PennController,15,0,frases,NULL,Selector,classificacao,Selection,negativa,1737653349223,negativa;neutra;positiva
1737653954,bc2584302fffead698e1809107a60040,PennController,15,0,frases,NULL,PennController,16,_Trial_,End,1737653349225,NULL
1737653954,bc2584302fffead698e1809107a60040,PennController,16,0,frases,NULL,PennController,17,_Trial_,Start,1737653349227,NULL
1737653954,bc2584302fffead698e1809107a60040,PennController,16,0,frases,NULL,Selector,classificacao,Selection,neutra,1737653353765,negativa;neutra;positiva
1737653954,bc2584302fffead698e1809107a60040,PennController,16,0,frases,NULL,PennController,17,_Trial_,End,1737653353766,NULL
1737653954,bc2584302fffead698e1809107a60040,PennController,17,0,frases,NULL,PennController,18,_Trial_,Start,1737653353767,NULL
1737653954,bc2584302fffead698e1809107a60040,PennController,17,0,frases,NULL,Selector,classificacao,Selection,positiva,1737653356552,negativa;neutra;positiva
1737653954,bc2584302fffead698e1809107a60040,PennController,17,0,frases,NULL,PennController,18,_Trial_,End,1737653356553,NULL
1737653954,bc2584302fffead698e1809107a60040,PennController,18,0,frases,NULL,PennController,19,_Trial_,Start,1737653356553,NULL
1737653954,bc2584302fffead698e1809107a60040,PennController,18,0,frases,NULL,Selector,classificacao,Selection,positiva,1737653360518,negativa;neutra;positiva
1737653954,bc2584302fffead698e1809107a60040,PennController,18,0,frases,NULL,PennController,19,_Trial_,End,1737653360520,NULL
1737653954,bc2584302fffead698e1809107a60040,PennController,19,0,frases,NULL,PennController,20,_Trial_,Start,1737653360521,NULL
1737653954,bc2584302fffead698e1809107a60040,PennController,19,0,frases,NULL,Selector,classificacao,Selection,positiva,1737653363662,negativa;neutra;positiva
1737653954,bc2584302fffead698e1809107a60040,PennController,19,0,frases,NULL,PennController,20,_Trial_,End,1737653363663,NULL
1737653954,bc2584302fffead698e1809107a60040,PennController,20,0,frases,NULL,PennController,21,_Trial_,Start,1737653363663,NULL
1737653954,bc2584302fffead698e1809107a60040,PennController,20,0,frases,NULL,Selector,classificacao,Selection,positiva,1737653365678,negativa;neutra;positiva
1737653954,bc2584302fffead698e1809107a60040,PennController,20,0,frases,NULL,PennController,21,_Trial_,End,1737653365679,NULL
1737653954,bc2584302fffead698e1809107a60040,PennController,21,0,frases,NULL,PennController,22,_Trial_,Start,1737653365679,NULL
1737653954,bc2584302fffead698e1809107a60040,PennController,21,0,frases,NULL,Selector,classificacao,Selection,negativa,1737653367799,negativa;neutra;positiva
1737653954,bc2584302fffead698e1809107a60040,PennController,21,0,frases,NULL,PennController,22,_Trial_,End,1737653367799,NULL
1737653954,bc2584302fffead698e1809107a60040,PennController,22,0,frases,NULL,PennController,23,_Trial_,Start,1737653367800,NULL
1737653954,bc2584302fffead698e1809107a60040,PennController,22,0,frases,NULL,Selector,classificacao,Selection,positiva,1737653369375,negativa;neutra;positiva
1737653954,bc2584302fffead698e1809107a60040,PennController,22,0,frases,NULL,PennController,23,_Trial_,End,1737653369375,NULL
1737653954,bc2584302fffead698e1809107a60040,PennController,23,0,frases,NULL,PennController,24,_Trial_,Start,1737653369376,NULL
1737653954,bc2584302fffead698e1809107a60040,PennController,23,0,frases,NULL,Selector,classificacao,Selection,negativa,1737653372055,negativa;neutra;positiva
1737653954,bc2584302fffead698e1809107a60040,PennController,23,0,frases,NULL,PennController,24,_Trial_,End,1737653372055,NULL
1737653954,bc2584302fffead698e1809107a60040,PennController,24,0,frases,NULL,PennController,25,_Trial_,Start,1737653372056,NULL
1737653954,bc2584302fffead698e1809107a60040,PennController,24,0,frases,NULL,Selector,classificacao,Selection,negativa,1737653376501,negativa;neutra;positiva
1737653954,bc2584302fffead698e1809107a60040,PennController,24,0,frases,NULL,PennController,25,_Trial_,End,1737653376502,NULL
1737653954,bc2584302fffead698e1809107a60040,PennController,25,0,frases,NULL,PennController,26,_Trial_,Start,1737653376503,NULL
1737653954,bc2584302fffead698e1809107a60040,PennController,25,0,frases,NULL,Selector,classificacao,Selection,positiva,1737653380086,negativa;neutra;positiva
1737653954,bc2584302fffead698e1809107a60040,PennController,25,0,frases,NULL,PennController,26,_Trial_,End,1737653380087,NULL
1737653954,bc2584302fffead698e1809107a60040,PennController,26,0,frases,NULL,PennController,27,_Trial_,Start,1737653380088,NULL
1737653954,bc2584302fffead698e1809107a60040,PennController,26,0,frases,NULL,Selector,classificacao,Selection,negativa,1737653382791,negativa;neutra;positiva
1737653954,bc2584302fffead698e1809107a60040,PennController,26,0,frases,NULL,PennController,27,_Trial_,End,1737653382792,NULL
1737653954,bc2584302fffead698e1809107a60040,PennController,27,0,frases,NULL,PennController,28,_Trial_,Start,1737653382793,NULL
1737653954,bc2584302fffead698e1809107a60040,PennController,27,0,frases,NULL,Selector,classificacao,Selection,negativa,1737653390454,negativa;neutra;positiva
1737653954,bc2584302fffead698e1809107a60040,PennController,27,0,frases,NULL,PennController,28,_Trial_,End,1737653390454,NULL
1737653954,bc2584302fffead698e1809107a60040,PennController,28,0,frases,NULL,PennController,29,_Trial_,Start,1737653390455,NULL
1737653954,bc2584302fffead698e1809107a60040,PennController,28,0,frases,NULL,Selector,classificacao,Selection,positiva,1737653396311,negativa;neutra;positiva
1737653954,bc2584302fffead698e1809107a60040,PennController,28,0,frases,NULL,PennController,29,_Trial_,End,1737653396312,NULL
1737653954,bc2584302fffead698e1809107a60040,PennController,29,0,frases,NULL,PennController,30,_Trial_,Start,1737653396312,NULL
1737653954,bc2584302fffead698e1809107a60040,PennController,29,0,frases,NULL,Selector,classificacao,Selection,positiva,1737653397679,negativa;neutra;positiva
1737653954,bc2584302fffead698e1809107a60040,PennController,29,0,frases,NULL,PennController,30,_Trial_,End,1737653397679,NULL
1737653954,bc2584302fffead698e1809107a60040,PennController,30,0,frases,NULL,PennController,31,_Trial_,Start,1737653397680,NULL
1737653954,bc2584302fffead698e1809107a60040,PennController,30,0,frases,NULL,Selector,classificacao,Selection,positiva,1737653400333,negativa;neutra;positiva
1737653954,bc2584302fffead698e1809107a60040,PennController,30,0,frases,NULL,PennController,31,_Trial_,End,1737653400334,NULL
1737653954,bc2584302fffead698e1809107a60040,PennController,31,0,frases,NULL,PennController,32,_Trial_,Start,1737653400335,NULL
1737653954,bc2584302fffead698e1809107a60040,PennController,31,0,frases,NULL,Selector,classificacao,Selection,positiva,1737653403478,negativa;neutra;positiva
1737653954,bc2584302fffead698e1809107a60040,PennController,31,0,frases,NULL,PennController,32,_Trial_,End,1737653403479,NULL
1737653954,bc2584302fffead698e1809107a60040,PennController,32,0,frases,NULL,PennController,33,_Trial_,Start,1737653403480,NULL
1737653954,bc2584302fffead698e1809107a60040,PennController,32,0,frases,NULL,Selector,classificacao,Selection,negativa,1737653428253,negativa;neutra;positiva
1737653954,bc2584302fffead698e1809107a60040,PennController,32,0,frases,NULL,PennController,33,_Trial_,End,1737653428254,NULL
1737653954,bc2584302fffead698e1809107a60040,PennController,33,0,frases,NULL,PennController,34,_Trial_,Start,1737653428255,NULL
1737653954,bc2584302fffead698e1809107a60040,PennController,33,0,frases,NULL,Selector,classificacao,Selection,negativa,1737653455566,negativa;neutra;positiva
1737653954,bc2584302fffead698e1809107a60040,PennController,33,0,frases,NULL,PennController,34,_Trial_,End,1737653455567,NULL
1737653954,bc2584302fffead698e1809107a60040,PennController,34,0,frases,NULL,PennController,35,_Trial_,Start,1737653455567,NULL
1737653954,bc2584302fffead698e1809107a60040,PennController,34,0,frases,NULL,Selector,classificacao,Selection,neutra,1737653459261,negativa;neutra;positiva
1737653954,bc2584302fffead698e1809107a60040,PennController,34,0,frases,NULL,PennController,35,_Trial_,End,1737653459262,NULL
1737653954,bc2584302fffead698e1809107a60040,PennController,35,0,frases,NULL,PennController,36,_Trial_,Start,1737653459263,NULL
1737653954,bc2584302fffead698e1809107a60040,PennController,35,0,frases,NULL,Selector,classificacao,Selection,positiva,1737653462207,negativa;neutra;positiva
1737653954,bc2584302fffead698e1809107a60040,PennController,35,0,frases,NULL,PennController,36,_Trial_,End,1737653462207,NULL
1737653954,bc2584302fffead698e1809107a60040,PennController,36,0,frases,NULL,PennController,37,_Trial_,Start,1737653462208,NULL
1737653954,bc2584302fffead698e1809107a60040,PennController,36,0,frases,NULL,Selector,classificacao,Selection,neutra,1737653467646,negativa;neutra;positiva
1737653954,bc2584302fffead698e1809107a60040,PennController,36,0,frases,NULL,PennController,37,_Trial_,End,1737653467647,NULL
1737653954,bc2584302fffead698e1809107a60040,PennController,37,0,frases,NULL,PennController,38,_Trial_,Start,1737653467647,NULL
1737653954,bc2584302fffead698e1809107a60040,PennController,37,0,frases,NULL,Selector,classificacao,Selection,positiva,1737653477111,negativa;neutra;positiva
1737653954,bc2584302fffead698e1809107a60040,PennController,37,0,frases,NULL,PennController,38,_Trial_,End,1737653477112,NULL
1737653954,bc2584302fffead698e1809107a60040,PennController,38,0,frases,NULL,PennController,39,_Trial_,Start,1737653477112,NULL
1737653954,bc2584302fffead698e1809107a60040,PennController,38,0,frases,NULL,Selector,classificacao,Selection,negativa,1737653479957,negativa;neutra;positiva
1737653954,bc2584302fffead698e1809107a60040,PennController,38,0,frases,NULL,PennController,39,_Trial_,End,1737653479959,NULL
1737653954,bc2584302fffead698e1809107a60040,PennController,39,0,frases,NULL,PennController,40,_Trial_,Start,1737653479959,NULL
1737653954,bc2584302fffead698e1809107a60040,PennController,39,0,frases,NULL,Selector,classificacao,Selection,positiva,1737653481951,negativa;neutra;positiva
1737653954,bc2584302fffead698e1809107a60040,PennController,39,0,frases,NULL,PennController,40,_Trial_,End,1737653481951,NULL
1737653954,bc2584302fffead698e1809107a60040,PennController,40,0,frases,NULL,PennController,41,_Trial_,Start,1737653481952,NULL
1737653954,bc2584302fffead698e1809107a60040,PennController,40,0,frases,NULL,Selector,classificacao,Selection,neutra,1737653485670,negativa;neutra;positiva
1737653954,bc2584302fffead698e1809107a60040,PennController,40,0,frases,NULL,PennController,41,_Trial_,End,1737653485670,NULL
1737653954,bc2584302fffead698e1809107a60040,PennController,41,0,frases,NULL,PennController,42,_Trial_,Start,1737653485671,NULL
1737653954,bc2584302fffead698e1809107a60040,PennController,41,0,frases,NULL,Selector,classificacao,Selection,negativa,1737653489381,negativa;neutra;positiva
1737653954,bc2584302fffead698e1809107a60040,PennController,41,0,frases,NULL,PennController,42,_Trial_,End,1737653489381,NULL
1737653954,bc2584302fffead698e1809107a60040,PennController,42,0,frases,NULL,PennController,43,_Trial_,Start,1737653489382,NULL
1737653954,bc2584302fffead698e1809107a60040,PennController,42,0,frases,NULL,Selector,classificacao,Selection,positiva,1737653493085,negativa;neutra;positiva
1737653954,bc2584302fffead698e1809107a60040,PennController,42,0,frases,NULL,PennController,43,_Trial_,End,1737653493086,NULL
1737653954,bc2584302fffead698e1809107a60040,PennController,43,0,frases,NULL,PennController,44,_Trial_,Start,1737653493087,NULL
1737653954,bc2584302fffead698e1809107a60040,PennController,43,0,frases,NULL,Selector,classificacao,Selection,positiva,1737653495429,negativa;neutra;positiva
1737653954,bc2584302fffead698e1809107a60040,PennController,43,0,frases,NULL,PennController,44,_Trial_,End,1737653495430,NULL
1737653954,bc2584302fffead698e1809107a60040,PennController,44,0,frases,NULL,PennController,45,_Trial_,Start,1737653495431,NULL
1737653954,bc2584302fffead698e1809107a60040,PennController,44,0,frases,NULL,Selector,classificacao,Selection,positiva,1737653496532,negativa;neutra;positiva
1737653954,bc2584302fffead698e1809107a60040,PennController,44,0,frases,NULL,PennController,45,_Trial_,End,1737653496533,NULL
1737653954,bc2584302fffead698e1809107a60040,PennController,45,0,frases,NULL,PennController,46,_Trial_,Start,1737653496535,NULL
1737653954,bc2584302fffead698e1809107a60040,PennController,45,0,frases,NULL,Selector,classificacao,Selection,positiva,1737653499510,negativa;neutra;positiva
1737653954,bc2584302fffead698e1809107a60040,PennController,45,0,frases,NULL,PennController,46,_Trial_,End,1737653499510,NULL
1737653954,bc2584302fffead698e1809107a60040,PennController,46,0,frases,NULL,PennController,47,_Trial_,Start,1737653499511,NULL
1737653954,bc2584302fffead698e1809107a60040,PennController,46,0,frases,NULL,Selector,classificacao,Selection,neutra,1737653503184,negativa;neutra;positiva
1737653954,bc2584302fffead698e1809107a60040,PennController,46,0,frases,NULL,PennController,47,_Trial_,End,1737653503185,NULL
1737653954,bc2584302fffead698e1809107a60040,PennController,47,0,frases,NULL,PennController,48,_Trial_,Start,1737653503185,NULL
1737653954,bc2584302fffead698e1809107a60040,PennController,47,0,frases,NULL,Selector,classificacao,Selection,negativa,1737653508871,negativa;neutra;positiva
1737653954,bc2584302fffead698e1809107a60040,PennController,47,0,frases,NULL,PennController,48,_Trial_,End,1737653508871,NULL
1737653954,bc2584302fffead698e1809107a60040,PennController,48,0,frases,NULL,PennController,49,_Trial_,Start,1737653508871,NULL
1737653954,bc2584302fffead698e1809107a60040,PennController,48,0,frases,NULL,Selector,classificacao,Selection,positiva,1737653513222,negativa;neutra;positiva
1737653954,bc2584302fffead698e1809107a60040,PennController,48,0,frases,NULL,PennController,49,_Trial_,End,1737653513223,NULL
1737653954,bc2584302fffead698e1809107a60040,PennController,49,0,frases,NULL,PennController,50,_Trial_,Start,1737653513224,NULL
1737653954,bc2584302fffead698e1809107a60040,PennController,49,0,frases,NULL,Selector,classificacao,Selection,positiva,1737653514447,negativa;neutra;positiva
1737653954,bc2584302fffead698e1809107a60040,PennController,49,0,frases,NULL,PennController,50,_Trial_,End,1737653514447,NULL
1737653954,bc2584302fffead698e1809107a60040,PennController,50,0,frases,NULL,PennController,51,_Trial_,Start,1737653514448,NULL
1737653954,bc2584302fffead698e1809107a60040,PennController,50,0,frases,NULL,Selector,classificacao,Selection,negativa,1737653517398,negativa;neutra;positiva
1737653954,bc2584302fffead698e1809107a60040,PennController,50,0,frases,NULL,PennController,51,_Trial_,End,1737653517399,NULL
1737653954,bc2584302fffead698e1809107a60040,PennController,51,0,frases,NULL,PennController,52,_Trial_,Start,1737653517400,NULL
1737653954,bc2584302fffead698e1809107a60040,PennController,51,0,frases,NULL,Selector,classificacao,Selection,negativa,1737653520597,negativa;neutra;positiva
1737653954,bc2584302fffead698e1809107a60040,PennController,51,0,frases,NULL,PennController,52,_Trial_,End,1737653520598,NULL
1737653954,bc2584302fffead698e1809107a60040,PennController,52,0,frases,NULL,PennController,53,_Trial_,Start,1737653520598,NULL
1737653954,bc2584302fffead698e1809107a60040,PennController,52,0,frases,NULL,Selector,classificacao,Selection,neutra,1737653522590,negativa;neutra;positiva
1737653954,bc2584302fffead698e1809107a60040,PennController,52,0,frases,NULL,PennController,53,_Trial_,End,1737653522590,NULL
1737653954,bc2584302fffead698e1809107a60040,PennController,53,0,frases,NULL,PennController,54,_Trial_,Start,1737653522591,NULL
1737653954,bc2584302fffead698e1809107a60040,PennController,53,0,frases,NULL,Selector,classificacao,Selection,neutra,1737653525453,negativa;neutra;positiva
1737653954,bc2584302fffead698e1809107a60040,PennController,53,0,frases,NULL,PennController,54,_Trial_,End,1737653525454,NULL
1737653954,bc2584302fffead698e1809107a60040,PennController,54,0,frases,NULL,PennController,55,_Trial_,Start,1737653525454,NULL
1737653954,bc2584302fffead698e1809107a60040,PennController,54,0,frases,NULL,Selector,classificacao,Selection,positiva,1737653530734,negativa;neutra;positiva
1737653954,bc2584302fffead698e1809107a60040,PennController,54,0,frases,NULL,PennController,55,_Trial_,End,1737653530735,NULL
1737653954,bc2584302fffead698e1809107a60040,PennController,55,0,frases,NULL,PennController,56,_Trial_,Start,1737653530735,NULL
1737653954,bc2584302fffead698e1809107a60040,PennController,55,0,frases,NULL,Selector,classificacao,Selection,negativa,1737653532914,negativa;neutra;positiva
1737653954,bc2584302fffead698e1809107a60040,PennController,55,0,frases,NULL,PennController,56,_Trial_,End,1737653532915,NULL
1737653954,bc2584302fffead698e1809107a60040,PennController,56,0,frases,NULL,PennController,57,_Trial_,Start,1737653532915,NULL
1737653954,bc2584302fffead698e1809107a60040,PennController,56,0,frases,NULL,Selector,classificacao,Selection,positiva,1737653534799,negativa;neutra;positiva
1737653954,bc2584302fffead698e1809107a60040,PennController,56,0,frases,NULL,PennController,57,_Trial_,End,1737653534800,NULL
1737653954,bc2584302fffead698e1809107a60040,PennController,57,0,frases,NULL,PennController,58,_Trial_,Start,1737653534801,NULL
1737653954,bc2584302fffead698e1809107a60040,PennController,57,0,frases,NULL,Selector,classificacao,Selection,negativa,1737653539079,negativa;neutra;positiva
1737653954,bc2584302fffead698e1809107a60040,PennController,57,0,frases,NULL,PennController,58,_Trial_,End,1737653539079,NULL
1737653954,bc2584302fffead698e1809107a60040,PennController,58,0,frases,NULL,PennController,59,_Trial_,Start,1737653539079,NULL
1737653954,bc2584302fffead698e1809107a60040,PennController,58,0,frases,NULL,Selector,classificacao,Selection,neutra,1737653544253,negativa;neutra;positiva
1737653954,bc2584302fffead698e1809107a60040,PennController,58,0,frases,NULL,PennController,59,_Trial_,End,1737653544254,NULL
1737653954,bc2584302fffead698e1809107a60040,PennController,59,0,frases,NULL,PennController,60,_Trial_,Start,1737653544255,NULL
1737653954,bc2584302fffead698e1809107a60040,PennController,59,0,frases,NULL,Selector,classificacao,Selection,positiva,1737653545645,negativa;neutra;positiva
1737653954,bc2584302fffead698e1809107a60040,PennController,59,0,frases,NULL,PennController,60,_Trial_,End,1737653545646,NULL
1737653954,bc2584302fffead698e1809107a60040,PennController,60,0,frases,NULL,PennController,61,_Trial_,Start,1737653545647,NULL
1737653954,bc2584302fffead698e1809107a60040,PennController,60,0,frases,NULL,Selector,classificacao,Selection,negativa,1737653548260,negativa;neutra;positiva
1737653954,bc2584302fffead698e1809107a60040,PennController,60,0,frases,NULL,PennController,61,_Trial_,End,1737653548261,NULL
1737653954,bc2584302fffead698e1809107a60040,PennController,61,0,frases,NULL,PennController,62,_Trial_,Start,1737653548262,NULL
1737653954,bc2584302fffead698e1809107a60040,PennController,61,0,frases,NULL,Selector,classificacao,Selection,neutra,1737653549525,negativa;neutra;positiva
1737653954,bc2584302fffead698e1809107a60040,PennController,61,0,frases,NULL,PennController,62,_Trial_,End,1737653549526,NULL
1737653954,bc2584302fffead698e1809107a60040,PennController,62,0,frases,NULL,PennController,63,_Trial_,Start,1737653549526,NULL
1737653954,bc2584302fffead698e1809107a60040,PennController,62,0,frases,NULL,Selector,classificacao,Selection,neutra,1737653562285,negativa;neutra;positiva
1737653954,bc2584302fffead698e1809107a60040,PennController,62,0,frases,NULL,PennController,63,_Trial_,End,1737653562286,NULL
1737653954,bc2584302fffead698e1809107a60040,PennController,63,0,frases,NULL,PennController,64,_Trial_,Start,1737653562286,NULL
1737653954,bc2584302fffead698e1809107a60040,PennController,63,0,frases,NULL,Selector,classificacao,Selection,negativa,1737653569807,negativa;neutra;positiva
1737653954,bc2584302fffead698e1809107a60040,PennController,63,0,frases,NULL,PennController,64,_Trial_,End,1737653569807,NULL
1737653954,bc2584302fffead698e1809107a60040,PennController,64,0,frases,NULL,PennController,65,_Trial_,Start,1737653569808,NULL
1737653954,bc2584302fffead698e1809107a60040,PennController,64,0,frases,NULL,Selector,classificacao,Selection,positiva,1737653634758,negativa;neutra;positiva
1737653954,bc2584302fffead698e1809107a60040,PennController,64,0,frases,NULL,PennController,65,_Trial_,End,1737653634758,NULL
1737653954,bc2584302fffead698e1809107a60040,PennController,65,0,frases,NULL,PennController,66,_Trial_,Start,1737653634759,NULL
1737653954,bc2584302fffead698e1809107a60040,PennController,65,0,frases,NULL,Selector,classificacao,Selection,positiva,1737653639006,negativa;neutra;positiva
1737653954,bc2584302fffead698e1809107a60040,PennController,65,0,frases,NULL,PennController,66,_Trial_,End,1737653639006,NULL
1737653954,bc2584302fffead698e1809107a60040,PennController,66,0,frases,NULL,PennController,67,_Trial_,Start,1737653639007,NULL
1737653954,bc2584302fffead698e1809107a60040,PennController,66,0,frases,NULL,Selector,classificacao,Selection,positiva,1737653643638,negativa;neutra;positiva
1737653954,bc2584302fffead698e1809107a60040,PennController,66,0,frases,NULL,PennController,67,_Trial_,End,1737653643638,NULL
1737653954,bc2584302fffead698e1809107a60040,PennController,67,0,frases,NULL,PennController,68,_Trial_,Start,1737653643639,NULL
1737653954,bc2584302fffead698e1809107a60040,PennController,67,0,frases,NULL,Selector,classificacao,Selection,negativa,1737653646543,negativa;neutra;positiva
1737653954,bc2584302fffead698e1809107a60040,PennController,67,0,frases,NULL,PennController,68,_Trial_,End,1737653646544,NULL
1737653954,bc2584302fffead698e1809107a60040,PennController,68,0,frases,NULL,PennController,69,_Trial_,Start,1737653646544,NULL
1737653954,bc2584302fffead698e1809107a60040,PennController,68,0,frases,NULL,Selector,classificacao,Selection,positiva,1737653649398,negativa;neutra;positiva
1737653954,bc2584302fffead698e1809107a60040,PennController,68,0,frases,NULL,PennController,69,_Trial_,End,1737653649399,NULL
1737653954,bc2584302fffead698e1809107a60040,PennController,69,0,frases,NULL,PennController,70,_Trial_,Start,1737653649399,NULL
1737653954,bc2584302fffead698e1809107a60040,PennController,69,0,frases,NULL,Selector,classificacao,Selection,negativa,1737653653542,negativa;neutra;positiva
1737653954,bc2584302fffead698e1809107a60040,PennController,69,0,frases,NULL,PennController,70,_Trial_,End,1737653653543,NULL
1737653954,bc2584302fffead698e1809107a60040,PennController,70,0,frases,NULL,PennController,71,_Trial_,Start,1737653653544,NULL
1737653954,bc2584302fffead698e1809107a60040,PennController,70,0,frases,NULL,Selector,classificacao,Selection,negativa,1737653655310,negativa;neutra;positiva
1737653954,bc2584302fffead698e1809107a60040,PennController,70,0,frases,NULL,PennController,71,_Trial_,End,1737653655311,NULL
1737653954,bc2584302fffead698e1809107a60040,PennController,71,0,frases,NULL,PennController,72,_Trial_,Start,1737653655311,NULL
1737653954,bc2584302fffead698e1809107a60040,PennController,71,0,frases,NULL,Selector,classificacao,Selection,neutra,1737653659134,negativa;neutra;positiva
1737653954,bc2584302fffead698e1809107a60040,PennController,71,0,frases,NULL,PennController,72,_Trial_,End,1737653659134,NULL
1737653954,bc2584302fffead698e1809107a60040,PennController,72,0,frases,NULL,PennController,73,_Trial_,Start,1737653659135,NULL
1737653954,bc2584302fffead698e1809107a60040,PennController,72,0,frases,NULL,Selector,classificacao,Selection,negativa,1737653663245,negativa;neutra;positiva
1737653954,bc2584302fffead698e1809107a60040,PennController,72,0,frases,NULL,PennController,73,_Trial_,End,1737653663245,NULL
1737653954,bc2584302fffead698e1809107a60040,PennController,73,0,frases,NULL,PennController,74,_Trial_,Start,1737653663246,NULL
1737653954,bc2584302fffead698e1809107a60040,PennController,73,0,frases,NULL,Selector,classificacao,Selection,neutra,1737653666502,negativa;neutra;positiva
1737653954,bc2584302fffead698e1809107a60040,PennController,73,0,frases,NULL,PennController,74,_Trial_,End,1737653666503,NULL
1737653954,bc2584302fffead698e1809107a60040,PennController,74,0,frases,NULL,PennController,75,_Trial_,Start,1737653666504,NULL
1737653954,bc2584302fffead698e1809107a60040,PennController,74,0,frases,NULL,Selector,classificacao,Selection,negativa,1737653669397,negativa;neutra;positiva
1737653954,bc2584302fffead698e1809107a60040,PennController,74,0,frases,NULL,PennController,75,_Trial_,End,1737653669398,NULL
1737653954,bc2584302fffead698e1809107a60040,PennController,75,0,frases,NULL,PennController,76,_Trial_,Start,1737653669399,NULL
1737653954,bc2584302fffead698e1809107a60040,PennController,75,0,frases,NULL,Selector,classificacao,Selection,positiva,1737653673861,negativa;neutra;positiva
1737653954,bc2584302fffead698e1809107a60040,PennController,75,0,frases,NULL,PennController,76,_Trial_,End,1737653673861,NULL
1737653954,bc2584302fffead698e1809107a60040,PennController,76,0,frases,NULL,PennController,77,_Trial_,Start,1737653673863,NULL
1737653954,bc2584302fffead698e1809107a60040,PennController,76,0,frases,NULL,Selector,classificacao,Selection,positiva,1737653676086,negativa;neutra;positiva
1737653954,bc2584302fffead698e1809107a60040,PennController,76,0,frases,NULL,PennController,77,_Trial_,End,1737653676086,NULL
1737653954,bc2584302fffead698e1809107a60040,PennController,77,0,frases,NULL,PennController,78,_Trial_,Start,1737653676087,NULL
1737653954,bc2584302fffead698e1809107a60040,PennController,77,0,frases,NULL,Selector,classificacao,Selection,negativa,1737653680805,negativa;neutra;positiva
1737653954,bc2584302fffead698e1809107a60040,PennController,77,0,frases,NULL,PennController,78,_Trial_,End,1737653680806,NULL
1737653954,bc2584302fffead698e1809107a60040,PennController,78,0,frases,NULL,PennController,79,_Trial_,Start,1737653680807,NULL
1737653954,bc2584302fffead698e1809107a60040,PennController,78,0,frases,NULL,Selector,classificacao,Selection,negativa,1737653682974,negativa;neutra;positiva
1737653954,bc2584302fffead698e1809107a60040,PennController,78,0,frases,NULL,PennController,79,_Trial_,End,1737653682974,NULL
1737653954,bc2584302fffead698e1809107a60040,PennController,79,0,frases,NULL,PennController,80,_Trial_,Start,1737653682975,NULL
1737653954,bc2584302fffead698e1809107a60040,PennController,79,0,frases,NULL,Selector,classificacao,Selection,neutra,1737653684886,negativa;neutra;positiva
1737653954,bc2584302fffead698e1809107a60040,PennController,79,0,frases,NULL,PennController,80,_Trial_,End,1737653684886,NULL
1737653954,bc2584302fffead698e1809107a60040,PennController,80,0,frases,NULL,PennController,81,_Trial_,Start,1737653684887,NULL
1737653954,bc2584302fffead698e1809107a60040,PennController,80,0,frases,NULL,Selector,classificacao,Selection,negativa,1737653687720,negativa;neutra;positiva
1737653954,bc2584302fffead698e1809107a60040,PennController,80,0,frases,NULL,PennController,81,_Trial_,End,1737653687721,NULL
1737653954,bc2584302fffead698e1809107a60040,PennController,81,0,frases,NULL,PennController,82,_Trial_,Start,1737653687722,NULL
1737653954,bc2584302fffead698e1809107a60040,PennController,81,0,frases,NULL,Selector,classificacao,Selection,negativa,1737653690789,negativa;neutra;positiva
1737653954,bc2584302fffead698e1809107a60040,PennController,81,0,frases,NULL,PennController,82,_Trial_,End,1737653690790,NULL
1737653954,bc2584302fffead698e1809107a60040,PennController,82,0,frases,NULL,PennController,83,_Trial_,Start,1737653690791,NULL
1737653954,bc2584302fffead698e1809107a60040,PennController,82,0,frases,NULL,Selector,classificacao,Selection,neutra,1737653693647,negativa;neutra;positiva
1737653954,bc2584302fffead698e1809107a60040,PennController,82,0,frases,NULL,PennController,83,_Trial_,End,1737653693647,NULL
1737653954,bc2584302fffead698e1809107a60040,PennController,83,0,frases,NULL,PennController,84,_Trial_,Start,1737653693648,NULL
1737653954,bc2584302fffead698e1809107a60040,PennController,83,0,frases,NULL,Selector,classificacao,Selection,positiva,1737653696333,negativa;neutra;positiva
1737653954,bc2584302fffead698e1809107a60040,PennController,83,0,frases,NULL,PennController,84,_Trial_,End,1737653696334,NULL
1737653954,bc2584302fffead698e1809107a60040,PennController,84,0,frases,NULL,PennController,85,_Trial_,Start,1737653696334,NULL
1737653954,bc2584302fffead698e1809107a60040,PennController,84,0,frases,NULL,Selector,classificacao,Selection,positiva,1737653698678,negativa;neutra;positiva
1737653954,bc2584302fffead698e1809107a60040,PennController,84,0,frases,NULL,PennController,85,_Trial_,End,1737653698678,NULL
1737653954,bc2584302fffead698e1809107a60040,PennController,85,0,frases,NULL,PennController,86,_Trial_,Start,1737653698679,NULL
1737653954,bc2584302fffead698e1809107a60040,PennController,85,0,frases,NULL,Selector,classificacao,Selection,positiva,1737653704877,negativa;neutra;positiva
1737653954,bc2584302fffead698e1809107a60040,PennController,85,0,frases,NULL,PennController,86,_Trial_,End,1737653704878,NULL
1737653954,bc2584302fffead698e1809107a60040,PennController,86,0,frases,NULL,PennController,87,_Trial_,Start,1737653704878,NULL
1737653954,bc2584302fffead698e1809107a60040,PennController,86,0,frases,NULL,Selector,classificacao,Selection,positiva,1737653709325,negativa;neutra;positiva
1737653954,bc2584302fffead698e1809107a60040,PennController,86,0,frases,NULL,PennController,87,_Trial_,End,1737653709325,NULL
1737653954,bc2584302fffead698e1809107a60040,PennController,87,0,frases,NULL,PennController,88,_Trial_,Start,1737653709326,NULL
1737653954,bc2584302fffead698e1809107a60040,PennController,87,0,frases,NULL,Selector,classificacao,Selection,positiva,1737653714293,negativa;neutra;positiva
1737653954,bc2584302fffead698e1809107a60040,PennController,87,0,frases,NULL,PennController,88,_Trial_,End,1737653714294,NULL
1737653954,bc2584302fffead698e1809107a60040,PennController,88,0,frases,NULL,PennController,89,_Trial_,Start,1737653714294,NULL
1737653954,bc2584302fffead698e1809107a60040,PennController,88,0,frases,NULL,Selector,classificacao,Selection,positiva,1737653716285,negativa;neutra;positiva
1737653954,bc2584302fffead698e1809107a60040,PennController,88,0,frases,NULL,PennController,89,_Trial_,End,1737653716286,NULL
1737653954,bc2584302fffead698e1809107a60040,PennController,89,0,frases,NULL,PennController,90,_Trial_,Start,1737653716287,NULL
1737653954,bc2584302fffead698e1809107a60040,PennController,89,0,frases,NULL,Selector,classificacao,Selection,positiva,1737653720125,negativa;neutra;positiva
1737653954,bc2584302fffead698e1809107a60040,PennController,89,0,frases,NULL,PennController,90,_Trial_,End,1737653720126,NULL
1737653954,bc2584302fffead698e1809107a60040,PennController,90,0,frases,NULL,PennController,91,_Trial_,Start,1737653720127,NULL
1737653954,bc2584302fffead698e1809107a60040,PennController,90,0,frases,NULL,Selector,classificacao,Selection,positiva,1737653723670,negativa;neutra;positiva
1737653954,bc2584302fffead698e1809107a60040,PennController,90,0,frases,NULL,PennController,91,_Trial_,End,1737653723670,NULL
1737653954,bc2584302fffead698e1809107a60040,PennController,91,0,frases,NULL,PennController,92,_Trial_,Start,1737653723671,NULL
1737653954,bc2584302fffead698e1809107a60040,PennController,91,0,frases,NULL,Selector,classificacao,Selection,positiva,1737653725325,negativa;neutra;positiva
1737653954,bc2584302fffead698e1809107a60040,PennController,91,0,frases,NULL,PennController,92,_Trial_,End,1737653725326,NULL
1737653954,bc2584302fffead698e1809107a60040,PennController,92,0,frases,NULL,PennController,93,_Trial_,Start,1737653725326,NULL
1737653954,bc2584302fffead698e1809107a60040,PennController,92,0,frases,NULL,Selector,classificacao,Selection,positiva,1737653728749,negativa;neutra;positiva
1737653954,bc2584302fffead698e1809107a60040,PennController,92,0,frases,NULL,PennController,93,_Trial_,End,1737653728750,NULL
1737653954,bc2584302fffead698e1809107a60040,PennController,93,0,frases,NULL,PennController,94,_Trial_,Start,1737653728750,NULL
1737653954,bc2584302fffead698e1809107a60040,PennController,93,0,frases,NULL,Selector,classificacao,Selection,positiva,1737653731092,negativa;neutra;positiva
1737653954,bc2584302fffead698e1809107a60040,PennController,93,0,frases,NULL,PennController,94,_Trial_,End,1737653731093,NULL
1737653954,bc2584302fffead698e1809107a60040,PennController,94,0,frases,NULL,PennController,95,_Trial_,Start,1737653731093,NULL
1737653954,bc2584302fffead698e1809107a60040,PennController,94,0,frases,NULL,Selector,classificacao,Selection,positiva,1737653733301,negativa;neutra;positiva
1737653954,bc2584302fffead698e1809107a60040,PennController,94,0,frases,NULL,PennController,95,_Trial_,End,1737653733301,NULL
1737653954,bc2584302fffead698e1809107a60040,PennController,95,0,frases,NULL,PennController,96,_Trial_,Start,1737653733301,NULL
1737653954,bc2584302fffead698e1809107a60040,PennController,95,0,frases,NULL,Selector,classificacao,Selection,neutra,1737653738598,negativa;neutra;positiva
1737653954,bc2584302fffead698e1809107a60040,PennController,95,0,frases,NULL,PennController,96,_Trial_,End,1737653738599,NULL
1737653954,bc2584302fffead698e1809107a60040,PennController,96,0,frases,NULL,PennController,97,_Trial_,Start,1737653738599,NULL
1737653954,bc2584302fffead698e1809107a60040,PennController,96,0,frases,NULL,Selector,classificacao,Selection,neutra,1737653743701,negativa;neutra;positiva
1737653954,bc2584302fffead698e1809107a60040,PennController,96,0,frases,NULL,PennController,97,_Trial_,End,1737653743703,NULL
1737653954,bc2584302fffead698e1809107a60040,PennController,97,0,frases,NULL,PennController,98,_Trial_,Start,1737653743703,NULL
1737653954,bc2584302fffead698e1809107a60040,PennController,97,0,frases,NULL,Selector,classificacao,Selection,negativa,1737653746853,negativa;neutra;positiva
1737653954,bc2584302fffead698e1809107a60040,PennController,97,0,frases,NULL,PennController,98,_Trial_,End,1737653746853,NULL
1737653954,bc2584302fffead698e1809107a60040,PennController,98,0,frases,NULL,PennController,99,_Trial_,Start,1737653746854,NULL
1737653954,bc2584302fffead698e1809107a60040,PennController,98,0,frases,NULL,Selector,classificacao,Selection,positiva,1737653749175,negativa;neutra;positiva
1737653954,bc2584302fffead698e1809107a60040,PennController,98,0,frases,NULL,PennController,99,_Trial_,End,1737653749175,NULL
1737653954,bc2584302fffead698e1809107a60040,PennController,99,0,frases,NULL,PennController,100,_Trial_,Start,1737653749175,NULL
1737653954,bc2584302fffead698e1809107a60040,PennController,99,0,frases,NULL,Selector,classificacao,Selection,positiva,1737653752085,negativa;neutra;positiva
1737653954,bc2584302fffead698e1809107a60040,PennController,99,0,frases,NULL,PennController,100,_Trial_,End,1737653752086,NULL
1737653954,bc2584302fffead698e1809107a60040,PennController,100,0,frases,NULL,PennController,101,_Trial_,Start,1737653752086,NULL
1737653954,bc2584302fffead698e1809107a60040,PennController,100,0,frases,NULL,Selector,classificacao,Selection,positiva,1737653754245,negativa;neutra;positiva
1737653954,bc2584302fffead698e1809107a60040,PennController,100,0,frases,NULL,PennController,101,_Trial_,End,1737653754246,NULL
1737653954,bc2584302fffead698e1809107a60040,PennController,101,0,frases,NULL,PennController,102,_Trial_,Start,1737653754247,NULL
1737653954,bc2584302fffead698e1809107a60040,PennController,101,0,frases,NULL,Selector,classificacao,Selection,positiva,1737653755525,negativa;neutra;positiva
1737653954,bc2584302fffead698e1809107a60040,PennController,101,0,frases,NULL,PennController,102,_Trial_,End,1737653755526,NULL
1737653954,bc2584302fffead698e1809107a60040,PennController,102,0,frases,NULL,PennController,103,_Trial_,Start,1737653755526,NULL
1737653954,bc2584302fffead698e1809107a60040,PennController,102,0,frases,NULL,Selector,classificacao,Selection,negativa,1737653757827,negativa;neutra;positiva
1737653954,bc2584302fffead698e1809107a60040,PennController,102,0,frases,NULL,PennController,103,_Trial_,End,1737653757828,NULL
1737653954,bc2584302fffead698e1809107a60040,PennController,103,0,frases,NULL,PennController,104,_Trial_,Start,1737653757828,NULL
1737653954,bc2584302fffead698e1809107a60040,PennController,103,0,frases,NULL,Selector,classificacao,Selection,positiva,1737653761892,negativa;neutra;positiva
1737653954,bc2584302fffead698e1809107a60040,PennController,103,0,frases,NULL,PennController,104,_Trial_,End,1737653761893,NULL
1737653954,bc2584302fffead698e1809107a60040,PennController,104,0,frases,NULL,PennController,105,_Trial_,Start,1737653761894,NULL
1737653954,bc2584302fffead698e1809107a60040,PennController,104,0,frases,NULL,Selector,classificacao,Selection,positiva,1737653766374,negativa;neutra;positiva
1737653954,bc2584302fffead698e1809107a60040,PennController,104,0,frases,NULL,PennController,105,_Trial_,End,1737653766375,NULL
1737653954,bc2584302fffead698e1809107a60040,PennController,105,0,frases,NULL,PennController,106,_Trial_,Start,1737653766375,NULL
1737653954,bc2584302fffead698e1809107a60040,PennController,105,0,frases,NULL,Selector,classificacao,Selection,neutra,1737653772629,negativa;neutra;positiva
1737653954,bc2584302fffead698e1809107a60040,PennController,105,0,frases,NULL,PennController,106,_Trial_,End,1737653772630,NULL
1737653954,bc2584302fffead698e1809107a60040,PennController,106,0,frases,NULL,PennController,107,_Trial_,Start,1737653772630,NULL
1737653954,bc2584302fffead698e1809107a60040,PennController,106,0,frases,NULL,Selector,classificacao,Selection,positiva,1737653774030,negativa;neutra;positiva
1737653954,bc2584302fffead698e1809107a60040,PennController,106,0,frases,NULL,PennController,107,_Trial_,End,1737653774030,NULL
1737653954,bc2584302fffead698e1809107a60040,PennController,107,0,frases,NULL,PennController,108,_Trial_,Start,1737653774031,NULL
1737653954,bc2584302fffead698e1809107a60040,PennController,107,0,frases,NULL,Selector,classificacao,Selection,positiva,1737653776077,negativa;neutra;positiva
1737653954,bc2584302fffead698e1809107a60040,PennController,107,0,frases,NULL,PennController,108,_Trial_,End,1737653776078,NULL
1737653954,bc2584302fffead698e1809107a60040,PennController,108,0,frases,NULL,PennController,109,_Trial_,Start,1737653776078,NULL
1737653954,bc2584302fffead698e1809107a60040,PennController,108,0,frases,NULL,Selector,classificacao,Selection,positiva,1737653779062,negativa;neutra;positiva
1737653954,bc2584302fffead698e1809107a60040,PennController,108,0,frases,NULL,PennController,109,_Trial_,End,1737653779063,NULL
1737653954,bc2584302fffead698e1809107a60040,PennController,109,0,frases,NULL,PennController,110,_Trial_,Start,1737653779063,NULL
1737653954,bc2584302fffead698e1809107a60040,PennController,109,0,frases,NULL,Selector,classificacao,Selection,negativa,1737653781013,negativa;neutra;positiva
1737653954,bc2584302fffead698e1809107a60040,PennController,109,0,frases,NULL,PennController,110,_Trial_,End,1737653781014,NULL
1737653954,bc2584302fffead698e1809107a60040,PennController,110,0,frases,NULL,PennController,111,_Trial_,Start,1737653781015,NULL
1737653954,bc2584302fffead698e1809107a60040,PennController,110,0,frases,NULL,Selector,classificacao,Selection,neutra,1737653787335,negativa;neutra;positiva
1737653954,bc2584302fffead698e1809107a60040,PennController,110,0,frases,NULL,PennController,111,_Trial_,End,1737653787336,NULL
1737653954,bc2584302fffead698e1809107a60040,PennController,111,0,frases,NULL,PennController,112,_Trial_,Start,1737653787336,NULL
1737653954,bc2584302fffead698e1809107a60040,PennController,111,0,frases,NULL,Selector,classificacao,Selection,positiva,1737653790741,negativa;neutra;positiva
1737653954,bc2584302fffead698e1809107a60040,PennController,111,0,frases,NULL,PennController,112,_Trial_,End,1737653790742,NULL
1737653954,bc2584302fffead698e1809107a60040,PennController,112,0,frases,NULL,PennController,113,_Trial_,Start,1737653790742,NULL
1737653954,bc2584302fffead698e1809107a60040,PennController,112,0,frases,NULL,Selector,classificacao,Selection,negativa,1737653796247,negativa;neutra;positiva
1737653954,bc2584302fffead698e1809107a60040,PennController,112,0,frases,NULL,PennController,113,_Trial_,End,1737653796247,NULL
1737653954,bc2584302fffead698e1809107a60040,PennController,113,0,frases,NULL,PennController,114,_Trial_,Start,1737653796249,NULL
1737653954,bc2584302fffead698e1809107a60040,PennController,113,0,frases,NULL,Selector,classificacao,Selection,neutra,1737653799269,negativa;neutra;positiva
1737653954,bc2584302fffead698e1809107a60040,PennController,113,0,frases,NULL,PennController,114,_Trial_,End,1737653799270,NULL
1737653954,bc2584302fffead698e1809107a60040,PennController,114,0,frases,NULL,PennController,115,_Trial_,Start,1737653799271,NULL
1737653954,bc2584302fffead698e1809107a60040,PennController,114,0,frases,NULL,Selector,classificacao,Selection,positiva,1737653804023,negativa;neutra;positiva
1737653954,bc2584302fffead698e1809107a60040,PennController,114,0,frases,NULL,PennController,115,_Trial_,End,1737653804023,NULL
1737653954,bc2584302fffead698e1809107a60040,PennController,115,0,frases,NULL,PennController,116,_Trial_,Start,1737653804024,NULL
1737653954,bc2584302fffead698e1809107a60040,PennController,115,0,frases,NULL,Selector,classificacao,Selection,positiva,1737653805269,negativa;neutra;positiva
1737653954,bc2584302fffead698e1809107a60040,PennController,115,0,frases,NULL,PennController,116,_Trial_,End,1737653805270,NULL
1737653954,bc2584302fffead698e1809107a60040,PennController,116,0,frases,NULL,PennController,117,_Trial_,Start,1737653805270,NULL
1737653954,bc2584302fffead698e1809107a60040,PennController,116,0,frases,NULL,Selector,classificacao,Selection,negativa,1737653810822,negativa;neutra;positiva
1737653954,bc2584302fffead698e1809107a60040,PennController,116,0,frases,NULL,PennController,117,_Trial_,End,1737653810822,NULL
1737653954,bc2584302fffead698e1809107a60040,PennController,117,0,frases,NULL,PennController,118,_Trial_,Start,1737653810822,NULL
1737653954,bc2584302fffead698e1809107a60040,PennController,117,0,frases,NULL,Selector,classificacao,Selection,positiva,1737653813406,negativa;neutra;positiva
1737653954,bc2584302fffead698e1809107a60040,PennController,117,0,frases,NULL,PennController,118,_Trial_,End,1737653813406,NULL
1737653954,bc2584302fffead698e1809107a60040,PennController,118,0,frases,NULL,PennController,119,_Trial_,Start,1737653813407,NULL
1737653954,bc2584302fffead698e1809107a60040,PennController,118,0,frases,NULL,Selector,classificacao,Selection,negativa,1737653817694,negativa;neutra;positiva
1737653954,bc2584302fffead698e1809107a60040,PennController,118,0,frases,NULL,PennController,119,_Trial_,End,1737653817695,NULL
1737653954,bc2584302fffead698e1809107a60040,PennController,119,0,frases,NULL,PennController,120,_Trial_,Start,1737653817695,NULL
1737653954,bc2584302fffead698e1809107a60040,PennController,119,0,frases,NULL,Selector,classificacao,Selection,negativa,1737653821589,negativa;neutra;positiva
1737653954,bc2584302fffead698e1809107a60040,PennController,119,0,frases,NULL,PennController,120,_Trial_,End,1737653821590,NULL
1737653954,bc2584302fffead698e1809107a60040,PennController,120,0,frases,NULL,PennController,121,_Trial_,Start,1737653821591,NULL
1737653954,bc2584302fffead698e1809107a60040,PennController,120,0,frases,NULL,Selector,classificacao,Selection,neutra,1737653823772,negativa;neutra;positiva
1737653954,bc2584302fffead698e1809107a60040,PennController,120,0,frases,NULL,PennController,121,_Trial_,End,1737653823773,NULL
1737653954,bc2584302fffead698e1809107a60040,PennController,121,0,frases,NULL,PennController,122,_Trial_,Start,1737653823774,NULL
1737653954,bc2584302fffead698e1809107a60040,PennController,121,0,frases,NULL,Selector,classificacao,Selection,neutra,1737653826389,negativa;neutra;positiva
1737653954,bc2584302fffead698e1809107a60040,PennController,121,0,frases,NULL,PennController,122,_Trial_,End,1737653826390,NULL
1737653954,bc2584302fffead698e1809107a60040,PennController,122,0,frases,NULL,PennController,123,_Trial_,Start,1737653826390,NULL
1737653954,bc2584302fffead698e1809107a60040,PennController,122,0,frases,NULL,Selector,classificacao,Selection,positiva,1737653831541,negativa;neutra;positiva
1737653954,bc2584302fffead698e1809107a60040,PennController,122,0,frases,NULL,PennController,123,_Trial_,End,1737653831542,NULL
1737653954,bc2584302fffead698e1809107a60040,PennController,123,0,frases,NULL,PennController,124,_Trial_,Start,1737653831543,NULL
1737653954,bc2584302fffead698e1809107a60040,PennController,123,0,frases,NULL,Selector,classificacao,Selection,negativa,1737653833870,negativa;neutra;positiva
1737653954,bc2584302fffead698e1809107a60040,PennController,123,0,frases,NULL,PennController,124,_Trial_,End,1737653833871,NULL
1737653954,bc2584302fffead698e1809107a60040,PennController,124,0,frases,NULL,PennController,125,_Trial_,Start,1737653833871,NULL
1737653954,bc2584302fffead698e1809107a60040,PennController,124,0,frases,NULL,Selector,classificacao,Selection,positiva,1737653836502,negativa;neutra;positiva
1737653954,bc2584302fffead698e1809107a60040,PennController,124,0,frases,NULL,PennController,125,_Trial_,End,1737653836503,NULL
1737653954,bc2584302fffead698e1809107a60040,PennController,125,0,frases,NULL,PennController,126,_Trial_,Start,1737653836503,NULL
1737653954,bc2584302fffead698e1809107a60040,PennController,125,0,frases,NULL,Selector,classificacao,Selection,negativa,1737653842397,negativa;neutra;positiva
1737653954,bc2584302fffead698e1809107a60040,PennController,125,0,frases,NULL,PennController,126,_Trial_,End,1737653842398,NULL
1737653954,bc2584302fffead698e1809107a60040,PennController,126,0,frases,NULL,PennController,127,_Trial_,Start,1737653842399,NULL
1737653954,bc2584302fffead698e1809107a60040,PennController,126,0,frases,NULL,Selector,classificacao,Selection,positiva,1737653844246,negativa;neutra;positiva
1737653954,bc2584302fffead698e1809107a60040,PennController,126,0,frases,NULL,PennController,127,_Trial_,End,1737653844247,NULL
1737653954,bc2584302fffead698e1809107a60040,PennController,127,0,frases,NULL,PennController,128,_Trial_,Start,1737653844247,NULL
1737653954,bc2584302fffead698e1809107a60040,PennController,127,0,frases,NULL,Selector,classificacao,Selection,positiva,1737653846093,negativa;neutra;positiva
1737653954,bc2584302fffead698e1809107a60040,PennController,127,0,frases,NULL,PennController,128,_Trial_,End,1737653846094,NULL
1737653954,bc2584302fffead698e1809107a60040,PennController,128,0,frases,NULL,PennController,129,_Trial_,Start,1737653846094,NULL
1737653954,bc2584302fffead698e1809107a60040,PennController,128,0,frases,NULL,Selector,classificacao,Selection,positiva,1737653848741,negativa;neutra;positiva
1737653954,bc2584302fffead698e1809107a60040,PennController,128,0,frases,NULL,PennController,129,_Trial_,End,1737653848741,NULL
1737653954,bc2584302fffead698e1809107a60040,PennController,129,0,frases,NULL,PennController,130,_Trial_,Start,1737653848742,NULL
1737653954,bc2584302fffead698e1809107a60040,PennController,129,0,frases,NULL,Selector,classificacao,Selection,negativa,1737653852391,negativa;neutra;positiva
1737653954,bc2584302fffead698e1809107a60040,PennController,129,0,frases,NULL,PennController,130,_Trial_,End,1737653852391,NULL
1737653954,bc2584302fffead698e1809107a60040,PennController,130,0,frases,NULL,PennController,131,_Trial_,Start,1737653852392,NULL
1737653954,bc2584302fffead698e1809107a60040,PennController,130,0,frases,NULL,Selector,classificacao,Selection,negativa,1737653863062,negativa;neutra;positiva
1737653954,bc2584302fffead698e1809107a60040,PennController,130,0,frases,NULL,PennController,131,_Trial_,End,1737653863063,NULL
1737653954,bc2584302fffead698e1809107a60040,PennController,131,0,frases,NULL,PennController,132,_Trial_,Start,1737653863064,NULL
1737653954,bc2584302fffead698e1809107a60040,PennController,131,0,frases,NULL,Selector,classificacao,Selection,negativa,1737653867902,negativa;neutra;positiva
1737653954,bc2584302fffead698e1809107a60040,PennController,131,0,frases,NULL,PennController,132,_Trial_,End,1737653867902,NULL
1737653954,bc2584302fffead698e1809107a60040,PennController,132,0,frases,NULL,PennController,133,_Trial_,Start,1737653867903,NULL
1737653954,bc2584302fffead698e1809107a60040,PennController,132,0,frases,NULL,Selector,classificacao,Selection,negativa,1737653873917,negativa;neutra;positiva
1737653954,bc2584302fffead698e1809107a60040,PennController,132,0,frases,NULL,PennController,133,_Trial_,End,1737653873918,NULL
1737653954,bc2584302fffead698e1809107a60040,PennController,133,0,frases,NULL,PennController,134,_Trial_,Start,1737653873918,NULL
1737653954,bc2584302fffead698e1809107a60040,PennController,133,0,frases,NULL,Selector,classificacao,Selection,negativa,1737653892558,negativa;neutra;positiva
1737653954,bc2584302fffead698e1809107a60040,PennController,133,0,frases,NULL,PennController,134,_Trial_,End,1737653892558,NULL
1737653954,bc2584302fffead698e1809107a60040,PennController,134,0,frases,NULL,PennController,135,_Trial_,Start,1737653892559,NULL
1737653954,bc2584302fffead698e1809107a60040,PennController,134,0,frases,NULL,Selector,classificacao,Selection,negativa,1737653895076,negativa;neutra;positiva
1737653954,bc2584302fffead698e1809107a60040,PennController,134,0,frases,NULL,PennController,135,_Trial_,End,1737653895077,NULL
1737653954,bc2584302fffead698e1809107a60040,PennController,135,0,frases,NULL,PennController,136,_Trial_,Start,1737653895078,NULL
1737653954,bc2584302fffead698e1809107a60040,PennController,135,0,frases,NULL,Selector,classificacao,Selection,negativa,1737653898437,negativa;neutra;positiva
1737653954,bc2584302fffead698e1809107a60040,PennController,135,0,frases,NULL,PennController,136,_Trial_,End,1737653898438,NULL
1737653954,bc2584302fffead698e1809107a60040,PennController,136,0,frases,NULL,PennController,137,_Trial_,Start,1737653898439,NULL
1737653954,bc2584302fffead698e1809107a60040,PennController,136,0,frases,NULL,Selector,classificacao,Selection,neutra,1737653901725,negativa;neutra;positiva
1737653954,bc2584302fffead698e1809107a60040,PennController,136,0,frases,NULL,PennController,137,_Trial_,End,1737653901725,NULL
1737653954,bc2584302fffead698e1809107a60040,PennController,137,0,frases,NULL,PennController,138,_Trial_,Start,1737653901726,NULL
1737653954,bc2584302fffead698e1809107a60040,PennController,137,0,frases,NULL,Selector,classificacao,Selection,neutra,1737653904958,negativa;neutra;positiva
1737653954,bc2584302fffead698e1809107a60040,PennController,137,0,frases,NULL,PennController,138,_Trial_,End,1737653904958,NULL
1737653954,bc2584302fffead698e1809107a60040,PennController,138,0,frases,NULL,PennController,139,_Trial_,Start,1737653904959,NULL
1737653954,bc2584302fffead698e1809107a60040,PennController,138,0,frases,NULL,Selector,classificacao,Selection,positiva,1737653907526,negativa;neutra;positiva
1737653954,bc2584302fffead698e1809107a60040,PennController,138,0,frases,NULL,PennController,139,_Trial_,End,1737653907526,NULL
1737653954,bc2584302fffead698e1809107a60040,PennController,139,0,frases,NULL,PennController,140,_Trial_,Start,1737653907526,NULL
1737653954,bc2584302fffead698e1809107a60040,PennController,139,0,frases,NULL,Selector,classificacao,Selection,positiva,1737653910581,negativa;neutra;positiva
1737653954,bc2584302fffead698e1809107a60040,PennController,139,0,frases,NULL,PennController,140,_Trial_,End,1737653910582,NULL
1737653954,bc2584302fffead698e1809107a60040,PennController,140,0,frases,NULL,PennController,141,_Trial_,Start,1737653910582,NULL
1737653954,bc2584302fffead698e1809107a60040,PennController,140,0,frases,NULL,Selector,classificacao,Selection,negativa,1737653913893,negativa;neutra;positiva
1737653954,bc2584302fffead698e1809107a60040,PennController,140,0,frases,NULL,PennController,141,_Trial_,End,1737653913894,NULL
1737653954,bc2584302fffead698e1809107a60040,PennController,141,0,frases,NULL,PennController,142,_Trial_,Start,1737653913894,NULL
1737653954,bc2584302fffead698e1809107a60040,PennController,141,0,frases,NULL,Selector,classificacao,Selection,positiva,1737653915941,negativa;neutra;positiva
1737653954,bc2584302fffead698e1809107a60040,PennController,141,0,frases,NULL,PennController,142,_Trial_,End,1737653915942,NULL
1737653954,bc2584302fffead698e1809107a60040,PennController,142,0,frases,NULL,PennController,143,_Trial_,Start,1737653915942,NULL
1737653954,bc2584302fffead698e1809107a60040,PennController,142,0,frases,NULL,Selector,classificacao,Selection,neutra,1737653921782,negativa;neutra;positiva
1737653954,bc2584302fffead698e1809107a60040,PennController,142,0,frases,NULL,PennController,143,_Trial_,End,1737653921782,NULL
1737653954,bc2584302fffead698e1809107a60040,PennController,143,0,frases,NULL,PennController,144,_Trial_,Start,1737653921783,NULL
1737653954,bc2584302fffead698e1809107a60040,PennController,143,0,frases,NULL,Selector,classificacao,Selection,positiva,1737653925398,negativa;neutra;positiva
1737653954,bc2584302fffead698e1809107a60040,PennController,143,0,frases,NULL,PennController,144,_Trial_,End,1737653925399,NULL
1737653954,bc2584302fffead698e1809107a60040,PennController,144,0,frases,NULL,PennController,145,_Trial_,Start,1737653925399,NULL
1737653954,bc2584302fffead698e1809107a60040,PennController,144,0,frases,NULL,Selector,classificacao,Selection,negativa,1737653927689,negativa;neutra;positiva
1737653954,bc2584302fffead698e1809107a60040,PennController,144,0,frases,NULL,PennController,145,_Trial_,End,1737653927690,NULL
1737653954,bc2584302fffead698e1809107a60040,PennController,145,0,frases,NULL,PennController,146,_Trial_,Start,1737653927690,NULL
1737653954,bc2584302fffead698e1809107a60040,PennController,145,0,frases,NULL,Selector,classificacao,Selection,negativa,1737653929590,negativa;neutra;positiva
1737653954,bc2584302fffead698e1809107a60040,PennController,145,0,frases,NULL,PennController,146,_Trial_,End,1737653929591,NULL
1737653954,bc2584302fffead698e1809107a60040,PennController,146,0,frases,NULL,PennController,147,_Trial_,Start,1737653929591,NULL
1737653954,bc2584302fffead698e1809107a60040,PennController,146,0,frases,NULL,Selector,classificacao,Selection,neutra,1737653932173,negativa;neutra;positiva
1737653954,bc2584302fffead698e1809107a60040,PennController,146,0,frases,NULL,PennController,147,_Trial_,End,1737653932173,NULL
1737653954,bc2584302fffead698e1809107a60040,PennController,147,0,frases,NULL,PennController,148,_Trial_,Start,1737653932174,NULL
1737653954,bc2584302fffead698e1809107a60040,PennController,147,0,frases,NULL,Selector,classificacao,Selection,positiva,1737653934869,negativa;neutra;positiva
1737653954,bc2584302fffead698e1809107a60040,PennController,147,0,frases,NULL,PennController,148,_Trial_,End,1737653934870,NULL
1737653954,bc2584302fffead698e1809107a60040,PennController,148,0,frases,NULL,PennController,149,_Trial_,Start,1737653934870,NULL
1737653954,bc2584302fffead698e1809107a60040,PennController,148,0,frases,NULL,Selector,classificacao,Selection,neutra,1737653938982,negativa;neutra;positiva
1737653954,bc2584302fffead698e1809107a60040,PennController,148,0,frases,NULL,PennController,149,_Trial_,End,1737653938982,NULL
1737653954,bc2584302fffead698e1809107a60040,PennController,149,0,frases,NULL,PennController,150,_Trial_,Start,1737653938983,NULL
1737653954,bc2584302fffead698e1809107a60040,PennController,149,0,frases,NULL,Selector,classificacao,Selection,positiva,1737653940357,negativa;neutra;positiva
1737653954,bc2584302fffead698e1809107a60040,PennController,149,0,frases,NULL,PennController,150,_Trial_,End,1737653940358,NULL
1737653954,bc2584302fffead698e1809107a60040,PennController,150,0,frases,NULL,PennController,151,_Trial_,Start,1737653940359,NULL
1737653954,bc2584302fffead698e1809107a60040,PennController,150,0,frases,NULL,Selector,classificacao,Selection,negativa,1737653943702,negativa;neutra;positiva
1737653954,bc2584302fffead698e1809107a60040,PennController,150,0,frases,NULL,PennController,151,_Trial_,End,1737653943702,NULL
1737653954,bc2584302fffead698e1809107a60040,PennController,151,0,frases,NULL,PennController,152,_Trial_,Start,1737653943703,NULL
1737653954,bc2584302fffead698e1809107a60040,PennController,151,0,frases,NULL,Selector,classificacao,Selection,negativa,1737653946854,negativa;neutra;positiva
1737653954,bc2584302fffead698e1809107a60040,PennController,151,0,frases,NULL,PennController,152,_Trial_,End,1737653946854,NULL
1737653954,bc2584302fffead698e1809107a60040,PennController,152,0,frases,NULL,PennController,153,_Trial_,Start,1737653946854,NULL
1737653954,bc2584302fffead698e1809107a60040,PennController,152,0,frases,NULL,Selector,classificacao,Selection,negativa,1737653949605,negativa;neutra;positiva
1737653954,bc2584302fffead698e1809107a60040,PennController,152,0,frases,NULL,PennController,153,_Trial_,End,1737653949606,NULL
1737653954,bc2584302fffead698e1809107a60040,PennController,153,0,frases,NULL,PennController,154,_Trial_,Start,1737653949606,NULL
1737653954,bc2584302fffead698e1809107a60040,PennController,153,0,frases,NULL,Selector,classificacao,Selection,negativa,1737653952588,negativa;neutra;positiva
1737653954,bc2584302fffead698e1809107a60040,PennController,153,0,frases,NULL,PennController,154,_Trial_,End,1737653952589,NULL
1737653954,bc2584302fffead698e1809107a60040,PennController,154,0,agradecimento,NULL,PennController,4,_Trial_,Start,1737653952590,NULL
1737653954,bc2584302fffead698e1809107a60040,PennController,154,0,agradecimento,NULL,PennController,4,_Trial_,End,1737653953711,NULL
#
# Results on Thu, 30 Jan 2025 14:01:25 GMT
# USER AGENT: Mozilla/5.0 (Windows NT 10.0; Win64; x64) AppleWebKit/537.36 (KHTML, like Gecko) Chrome/132.0.0.0 Safari/537.36
# Design number was non-random = 1
#
# Columns below this comment are as follows:
# 1. Results reception time.
# 2. MD5 hash of participant's IP address.
# 3. Controller name.
# 4. Order number of item.
# 5. Inner element number.
# 6. Label.
# 7. Latin Square Group.
# 8. PennElementType.
# 9. PennElementName.
# 10. Parameter.
# 11. Value.
# 12. EventTime.
# 13. Comments.
1738245685,79d2f0d2275aacd4e4e71a607a16f228,PennController,0,0,TCLE,NULL,PennController,0,_Trial_,Start,1738244915510,NULL
1738245685,79d2f0d2275aacd4e4e71a607a16f228,PennController,0,0,TCLE,NULL,PennController,0,_Trial_,End,1738244943151,NULL
1738245685,79d2f0d2275aacd4e4e71a607a16f228,PennController,3,0,instrucoes,NULL,PennController,3,_Trial_,Start,1738244943154,NULL
1738245685,79d2f0d2275aacd4e4e71a607a16f228,PennController,3,0,instrucoes,NULL,PennController,3,_Trial_,End,1738244944593,NULL
1738245685,79d2f0d2275aacd4e4e71a607a16f228,PennController,1,0,genero,NULL,PennController,1,_Trial_,Start,1738244944595,NULL
1738245685,79d2f0d2275aacd4e4e71a607a16f228,PennController,1,0,genero,NULL,DropDown,selecionaGenero,Selected,Feminino,1738244946676,1
1738245685,79d2f0d2275aacd4e4e71a607a16f228,PennController,1,0,genero,NULL,PennController,1,_Trial_,End,1738244948001,NULL
1738245685,79d2f0d2275aacd4e4e71a607a16f228,PennController,4,0,frases,NULL,PennController,5,_Trial_,Start,1738244948003,NULL
1738245685,79d2f0d2275aacd4e4e71a607a16f228,PennController,4,0,frases,NULL,Selector,classificacao,Selection,neutra,1738244954993,negativa;neutra;positiva
1738245685,79d2f0d2275aacd4e4e71a607a16f228,PennController,4,0,frases,NULL,PennController,5,_Trial_,End,1738244954995,NULL
1738245685,79d2f0d2275aacd4e4e71a607a16f228,PennController,5,0,frases,NULL,PennController,6,_Trial_,Start,1738244954995,NULL
1738245685,79d2f0d2275aacd4e4e71a607a16f228,PennController,5,0,frases,NULL,Selector,classificacao,Selection,neutra,1738244961609,negativa;neutra;positiva
1738245685,79d2f0d2275aacd4e4e71a607a16f228,PennController,5,0,frases,NULL,PennController,6,_Trial_,End,1738244961610,NULL
1738245685,79d2f0d2275aacd4e4e71a607a16f228,PennController,6,0,frases,NULL,PennController,7,_Trial_,Start,1738244961610,NULL
1738245685,79d2f0d2275aacd4e4e71a607a16f228,PennController,6,0,frases,NULL,Selector,classificacao,Selection,neutra,1738244966230,negativa;neutra;positiva
1738245685,79d2f0d2275aacd4e4e71a607a16f228,PennController,6,0,frases,NULL,PennController,7,_Trial_,End,1738244966231,NULL
1738245685,79d2f0d2275aacd4e4e71a607a16f228,PennController,7,0,frases,NULL,PennController,8,_Trial_,Start,1738244966232,NULL
1738245685,79d2f0d2275aacd4e4e71a607a16f228,PennController,7,0,frases,NULL,Selector,classificacao,Selection,neutra,1738244968415,negativa;neutra;positiva
1738245685,79d2f0d2275aacd4e4e71a607a16f228,PennController,7,0,frases,NULL,PennController,8,_Trial_,End,1738244968416,NULL
1738245685,79d2f0d2275aacd4e4e71a607a16f228,PennController,8,0,frases,NULL,PennController,9,_Trial_,Start,1738244968417,NULL
1738245685,79d2f0d2275aacd4e4e71a607a16f228,PennController,8,0,frases,NULL,Selector,classificacao,Selection,negativa,1738244983141,negativa;neutra;positiva
1738245685,79d2f0d2275aacd4e4e71a607a16f228,PennController,8,0,frases,NULL,PennController,9,_Trial_,End,1738244983142,NULL
1738245685,79d2f0d2275aacd4e4e71a607a16f228,PennController,9,0,frases,NULL,PennController,10,_Trial_,Start,1738244983143,NULL
1738245685,79d2f0d2275aacd4e4e71a607a16f228,PennController,9,0,frases,NULL,Selector,classificacao,Selection,neutra,1738244986032,negativa;neutra;positiva
1738245685,79d2f0d2275aacd4e4e71a607a16f228,PennController,9,0,frases,NULL,PennController,10,_Trial_,End,1738244986034,NULL
1738245685,79d2f0d2275aacd4e4e71a607a16f228,PennController,10,0,frases,NULL,PennController,11,_Trial_,Start,1738244986035,NULL
1738245685,79d2f0d2275aacd4e4e71a607a16f228,PennController,10,0,frases,NULL,Selector,classificacao,Selection,neutra,1738244993664,negativa;neutra;positiva
1738245685,79d2f0d2275aacd4e4e71a607a16f228,PennController,10,0,frases,NULL,PennController,11,_Trial_,End,1738244993665,NULL
1738245685,79d2f0d2275aacd4e4e71a607a16f228,PennController,11,0,frases,NULL,PennController,12,_Trial_,Start,1738244993666,NULL
1738245685,79d2f0d2275aacd4e4e71a607a16f228,PennController,11,0,frases,NULL,Selector,classificacao,Selection,neutra,1738244996334,negativa;neutra;positiva
1738245685,79d2f0d2275aacd4e4e71a607a16f228,PennController,11,0,frases,NULL,PennController,12,_Trial_,End,1738244996335,NULL
1738245685,79d2f0d2275aacd4e4e71a607a16f228,PennController,12,0,frases,NULL,PennController,13,_Trial_,Start,1738244996336,NULL
1738245685,79d2f0d2275aacd4e4e71a607a16f228,PennController,12,0,frases,NULL,Selector,classificacao,Selection,neutra,1738245001534,negativa;neutra;positiva
1738245685,79d2f0d2275aacd4e4e71a607a16f228,PennController,12,0,frases,NULL,PennController,13,_Trial_,End,1738245001535,NULL
1738245685,79d2f0d2275aacd4e4e71a607a16f228,PennController,13,0,frases,NULL,PennController,14,_Trial_,Start,1738245001536,NULL
1738245685,79d2f0d2275aacd4e4e71a607a16f228,PennController,13,0,frases,NULL,Selector,classificacao,Selection,neutra,1738245005411,negativa;neutra;positiva
1738245685,79d2f0d2275aacd4e4e71a607a16f228,PennController,13,0,frases,NULL,PennController,14,_Trial_,End,1738245005411,NULL
1738245685,79d2f0d2275aacd4e4e71a607a16f228,PennController,14,0,frases,NULL,PennController,15,_Trial_,Start,1738245005412,NULL
1738245685,79d2f0d2275aacd4e4e71a607a16f228,PennController,14,0,frases,NULL,Selector,classificacao,Selection,positiva,1738245010207,negativa;neutra;positiva
1738245685,79d2f0d2275aacd4e4e71a607a16f228,PennController,14,0,frases,NULL,PennController,15,_Trial_,End,1738245010208,NULL
1738245685,79d2f0d2275aacd4e4e71a607a16f228,PennController,15,0,frases,NULL,PennController,16,_Trial_,Start,1738245010208,NULL
1738245685,79d2f0d2275aacd4e4e71a607a16f228,PennController,15,0,frases,NULL,Selector,classificacao,Selection,neutra,1738245018116,negativa;neutra;positiva
1738245685,79d2f0d2275aacd4e4e71a607a16f228,PennController,15,0,frases,NULL,PennController,16,_Trial_,End,1738245018118,NULL
1738245685,79d2f0d2275aacd4e4e71a607a16f228,PennController,16,0,frases,NULL,PennController,17,_Trial_,Start,1738245018118,NULL
1738245685,79d2f0d2275aacd4e4e71a607a16f228,PennController,16,0,frases,NULL,Selector,classificacao,Selection,neutra,1738245020188,negativa;neutra;positiva
1738245685,79d2f0d2275aacd4e4e71a607a16f228,PennController,16,0,frases,NULL,PennController,17,_Trial_,End,1738245020189,NULL
1738245685,79d2f0d2275aacd4e4e71a607a16f228,PennController,17,0,frases,NULL,PennController,18,_Trial_,Start,1738245020189,NULL
1738245685,79d2f0d2275aacd4e4e71a607a16f228,PennController,17,0,frases,NULL,Selector,classificacao,Selection,neutra,1738245023860,negativa;neutra;positiva
1738245685,79d2f0d2275aacd4e4e71a607a16f228,PennController,17,0,frases,NULL,PennController,18,_Trial_,End,1738245023861,NULL
1738245685,79d2f0d2275aacd4e4e71a607a16f228,PennController,18,0,frases,NULL,PennController,19,_Trial_,Start,1738245023862,NULL
1738245685,79d2f0d2275aacd4e4e71a607a16f228,PennController,18,0,frases,NULL,Selector,classificacao,Selection,neutra,1738245028292,negativa;neutra;positiva
1738245685,79d2f0d2275aacd4e4e71a607a16f228,PennController,18,0,frases,NULL,PennController,19,_Trial_,End,1738245028293,NULL
1738245685,79d2f0d2275aacd4e4e71a607a16f228,PennController,19,0,frases,NULL,PennController,20,_Trial_,Start,1738245028294,NULL
1738245685,79d2f0d2275aacd4e4e71a607a16f228,PennController,19,0,frases,NULL,Selector,classificacao,Selection,neutra,1738245033608,negativa;neutra;positiva
1738245685,79d2f0d2275aacd4e4e71a607a16f228,PennController,19,0,frases,NULL,PennController,20,_Trial_,End,1738245033609,NULL
1738245685,79d2f0d2275aacd4e4e71a607a16f228,PennController,20,0,frases,NULL,PennController,21,_Trial_,Start,1738245033610,NULL
1738245685,79d2f0d2275aacd4e4e71a607a16f228,PennController,20,0,frases,NULL,Selector,classificacao,Selection,neutra,1738245035910,negativa;neutra;positiva
1738245685,79d2f0d2275aacd4e4e71a607a16f228,PennController,20,0,frases,NULL,PennController,21,_Trial_,End,1738245035911,NULL
1738245685,79d2f0d2275aacd4e4e71a607a16f228,PennController,21,0,frases,NULL,PennController,22,_Trial_,Start,1738245035912,NULL
1738245685,79d2f0d2275aacd4e4e71a607a16f228,PennController,21,0,frases,NULL,Selector,classificacao,Selection,neutra,1738245041172,negativa;neutra;positiva
1738245685,79d2f0d2275aacd4e4e71a607a16f228,PennController,21,0,frases,NULL,PennController,22,_Trial_,End,1738245041173,NULL
1738245685,79d2f0d2275aacd4e4e71a607a16f228,PennController,22,0,frases,NULL,PennController,23,_Trial_,Start,1738245041174,NULL
1738245685,79d2f0d2275aacd4e4e71a607a16f228,PennController,22,0,frases,NULL,Selector,classificacao,Selection,neutra,1738245044929,negativa;neutra;positiva
1738245685,79d2f0d2275aacd4e4e71a607a16f228,PennController,22,0,frases,NULL,PennController,23,_Trial_,End,1738245044930,NULL
1738245685,79d2f0d2275aacd4e4e71a607a16f228,PennController,23,0,frases,NULL,PennController,24,_Trial_,Start,1738245044931,NULL
1738245685,79d2f0d2275aacd4e4e71a607a16f228,PennController,23,0,frases,NULL,Selector,classificacao,Selection,neutra,1738245052430,negativa;neutra;positiva
1738245685,79d2f0d2275aacd4e4e71a607a16f228,PennController,23,0,frases,NULL,PennController,24,_Trial_,End,1738245052432,NULL
1738245685,79d2f0d2275aacd4e4e71a607a16f228,PennController,24,0,frases,NULL,PennController,25,_Trial_,Start,1738245052433,NULL
1738245685,79d2f0d2275aacd4e4e71a607a16f228,PennController,24,0,frases,NULL,Selector,classificacao,Selection,negativa,1738245062268,negativa;neutra;positiva
1738245685,79d2f0d2275aacd4e4e71a607a16f228,PennController,24,0,frases,NULL,PennController,25,_Trial_,End,1738245062269,NULL
1738245685,79d2f0d2275aacd4e4e71a607a16f228,PennController,25,0,frases,NULL,PennController,26,_Trial_,Start,1738245062270,NULL
1738245685,79d2f0d2275aacd4e4e71a607a16f228,PennController,25,0,frases,NULL,Selector,classificacao,Selection,neutra,1738245066088,negativa;neutra;positiva
1738245685,79d2f0d2275aacd4e4e71a607a16f228,PennController,25,0,frases,NULL,PennController,26,_Trial_,End,1738245066088,NULL
1738245685,79d2f0d2275aacd4e4e71a607a16f228,PennController,26,0,frases,NULL,PennController,27,_Trial_,Start,1738245066089,NULL
1738245685,79d2f0d2275aacd4e4e71a607a16f228,PennController,26,0,frases,NULL,Selector,classificacao,Selection,negativa,1738245070714,negativa;neutra;positiva
1738245685,79d2f0d2275aacd4e4e71a607a16f228,PennController,26,0,frases,NULL,PennController,27,_Trial_,End,1738245070715,NULL
1738245685,79d2f0d2275aacd4e4e71a607a16f228,PennController,27,0,frases,NULL,PennController,28,_Trial_,Start,1738245070716,NULL
1738245685,79d2f0d2275aacd4e4e71a607a16f228,PennController,27,0,frases,NULL,Selector,classificacao,Selection,negativa,1738245081386,negativa;neutra;positiva
1738245685,79d2f0d2275aacd4e4e71a607a16f228,PennController,27,0,frases,NULL,PennController,28,_Trial_,End,1738245081387,NULL
1738245685,79d2f0d2275aacd4e4e71a607a16f228,PennController,28,0,frases,NULL,PennController,29,_Trial_,Start,1738245081388,NULL
1738245685,79d2f0d2275aacd4e4e71a607a16f228,PennController,28,0,frases,NULL,Selector,classificacao,Selection,neutra,1738245083564,negativa;neutra;positiva
1738245685,79d2f0d2275aacd4e4e71a607a16f228,PennController,28,0,frases,NULL,PennController,29,_Trial_,End,1738245083565,NULL
1738245685,79d2f0d2275aacd4e4e71a607a16f228,PennController,29,0,frases,NULL,PennController,30,_Trial_,Start,1738245083566,NULL
1738245685,79d2f0d2275aacd4e4e71a607a16f228,PennController,29,0,frases,NULL,Selector,classificacao,Selection,neutra,1738245085086,negativa;neutra;positiva
1738245685,79d2f0d2275aacd4e4e71a607a16f228,PennController,29,0,frases,NULL,PennController,30,_Trial_,End,1738245085087,NULL
1738245685,79d2f0d2275aacd4e4e71a607a16f228,PennController,30,0,frases,NULL,PennController,31,_Trial_,Start,1738245085088,NULL
1738245685,79d2f0d2275aacd4e4e71a607a16f228,PennController,30,0,frases,NULL,Selector,classificacao,Selection,neutra,1738245087670,negativa;neutra;positiva
1738245685,79d2f0d2275aacd4e4e71a607a16f228,PennController,30,0,frases,NULL,PennController,31,_Trial_,End,1738245087671,NULL
1738245685,79d2f0d2275aacd4e4e71a607a16f228,PennController,31,0,frases,NULL,PennController,32,_Trial_,Start,1738245087672,NULL
1738245685,79d2f0d2275aacd4e4e71a607a16f228,PennController,31,0,frases,NULL,Selector,classificacao,Selection,neutra,1738245090278,negativa;neutra;positiva
1738245685,79d2f0d2275aacd4e4e71a607a16f228,PennController,31,0,frases,NULL,PennController,32,_Trial_,End,1738245090279,NULL
1738245685,79d2f0d2275aacd4e4e71a607a16f228,PennController,32,0,frases,NULL,PennController,33,_Trial_,Start,1738245090280,NULL
1738245685,79d2f0d2275aacd4e4e71a607a16f228,PennController,32,0,frases,NULL,Selector,classificacao,Selection,neutra,1738245094308,negativa;neutra;positiva
1738245685,79d2f0d2275aacd4e4e71a607a16f228,PennController,32,0,frases,NULL,PennController,33,_Trial_,End,1738245094309,NULL
1738245685,79d2f0d2275aacd4e4e71a607a16f228,PennController,33,0,frases,NULL,PennController,34,_Trial_,Start,1738245094310,NULL
1738245685,79d2f0d2275aacd4e4e71a607a16f228,PennController,33,0,frases,NULL,Selector,classificacao,Selection,negativa,1738245113040,negativa;neutra;positiva
1738245685,79d2f0d2275aacd4e4e71a607a16f228,PennController,33,0,frases,NULL,PennController,34,_Trial_,End,1738245113041,NULL
1738245685,79d2f0d2275aacd4e4e71a607a16f228,PennController,34,0,frases,NULL,PennController,35,_Trial_,Start,1738245113042,NULL
1738245685,79d2f0d2275aacd4e4e71a607a16f228,PennController,34,0,frases,NULL,Selector,classificacao,Selection,neutra,1738245118156,negativa;neutra;positiva
1738245685,79d2f0d2275aacd4e4e71a607a16f228,PennController,34,0,frases,NULL,PennController,35,_Trial_,End,1738245118157,NULL
1738245685,79d2f0d2275aacd4e4e71a607a16f228,PennController,35,0,frases,NULL,PennController,36,_Trial_,Start,1738245118158,NULL
1738245685,79d2f0d2275aacd4e4e71a607a16f228,PennController,35,0,frases,NULL,Selector,classificacao,Selection,neutra,1738245120164,negativa;neutra;positiva
1738245685,79d2f0d2275aacd4e4e71a607a16f228,PennController,35,0,frases,NULL,PennController,36,_Trial_,End,1738245120165,NULL
1738245685,79d2f0d2275aacd4e4e71a607a16f228,PennController,36,0,frases,NULL,PennController,37,_Trial_,Start,1738245120166,NULL
1738245685,79d2f0d2275aacd4e4e71a607a16f228,PennController,36,0,frases,NULL,Selector,classificacao,Selection,neutra,1738245122632,negativa;neutra;positiva
1738245685,79d2f0d2275aacd4e4e71a607a16f228,PennController,36,0,frases,NULL,PennController,37,_Trial_,End,1738245122633,NULL
1738245685,79d2f0d2275aacd4e4e71a607a16f228,PennController,37,0,frases,NULL,PennController,38,_Trial_,Start,1738245122633,NULL
1738245685,79d2f0d2275aacd4e4e71a607a16f228,PennController,37,0,frases,NULL,Selector,classificacao,Selection,neutra,1738245127186,negativa;neutra;positiva
1738245685,79d2f0d2275aacd4e4e71a607a16f228,PennController,37,0,frases,NULL,PennController,38,_Trial_,End,1738245127187,NULL
1738245685,79d2f0d2275aacd4e4e71a607a16f228,PennController,38,0,frases,NULL,PennController,39,_Trial_,Start,1738245127188,NULL
1738245685,79d2f0d2275aacd4e4e71a607a16f228,PennController,38,0,frases,NULL,Selector,classificacao,Selection,negativa,1738245133974,negativa;neutra;positiva
1738245685,79d2f0d2275aacd4e4e71a607a16f228,PennController,38,0,frases,NULL,PennController,39,_Trial_,End,1738245133975,NULL
1738245685,79d2f0d2275aacd4e4e71a607a16f228,PennController,39,0,frases,NULL,PennController,40,_Trial_,Start,1738245133976,NULL
1738245685,79d2f0d2275aacd4e4e71a607a16f228,PennController,39,0,frases,NULL,Selector,classificacao,Selection,neutra,1738245135996,negativa;neutra;positiva
1738245685,79d2f0d2275aacd4e4e71a607a16f228,PennController,39,0,frases,NULL,PennController,40,_Trial_,End,1738245135997,NULL
1738245685,79d2f0d2275aacd4e4e71a607a16f228,PennController,40,0,frases,NULL,PennController,41,_Trial_,Start,1738245135998,NULL
1738245685,79d2f0d2275aacd4e4e71a607a16f228,PennController,40,0,frases,NULL,Selector,classificacao,Selection,neutra,1738245139198,negativa;neutra;positiva
1738245685,79d2f0d2275aacd4e4e71a607a16f228,PennController,40,0,frases,NULL,PennController,41,_Trial_,End,1738245139199,NULL
1738245685,79d2f0d2275aacd4e4e71a607a16f228,PennController,41,0,frases,NULL,PennController,42,_Trial_,Start,1738245139200,NULL
1738245685,79d2f0d2275aacd4e4e71a607a16f228,PennController,41,0,frases,NULL,Selector,classificacao,Selection,neutra,1738245143084,negativa;neutra;positiva
1738245685,79d2f0d2275aacd4e4e71a607a16f228,PennController,41,0,frases,NULL,PennController,42,_Trial_,End,1738245143085,NULL
1738245685,79d2f0d2275aacd4e4e71a607a16f228,PennController,42,0,frases,NULL,PennController,43,_Trial_,Start,1738245143086,NULL
1738245685,79d2f0d2275aacd4e4e71a607a16f228,PennController,42,0,frases,NULL,Selector,classificacao,Selection,neutra,1738245145910,negativa;neutra;positiva
1738245685,79d2f0d2275aacd4e4e71a607a16f228,PennController,42,0,frases,NULL,PennController,43,_Trial_,End,1738245145911,NULL
1738245685,79d2f0d2275aacd4e4e71a607a16f228,PennController,43,0,frases,NULL,PennController,44,_Trial_,Start,1738245145912,NULL
1738245685,79d2f0d2275aacd4e4e71a607a16f228,PennController,43,0,frases,NULL,Selector,classificacao,Selection,neutra,1738245147868,negativa;neutra;positiva
1738245685,79d2f0d2275aacd4e4e71a607a16f228,PennController,43,0,frases,NULL,PennController,44,_Trial_,End,1738245147869,NULL
1738245685,79d2f0d2275aacd4e4e71a607a16f228,PennController,44,0,frases,NULL,PennController,45,_Trial_,Start,1738245147870,NULL
1738245685,79d2f0d2275aacd4e4e71a607a16f228,PennController,44,0,frases,NULL,Selector,classificacao,Selection,neutra,1738245149442,negativa;neutra;positiva
1738245685,79d2f0d2275aacd4e4e71a607a16f228,PennController,44,0,frases,NULL,PennController,45,_Trial_,End,1738245149443,NULL
1738245685,79d2f0d2275aacd4e4e71a607a16f228,PennController,45,0,frases,NULL,PennController,46,_Trial_,Start,1738245149444,NULL
1738245685,79d2f0d2275aacd4e4e71a607a16f228,PennController,45,0,frases,NULL,Selector,classificacao,Selection,neutra,1738245154416,negativa;neutra;positiva
1738245685,79d2f0d2275aacd4e4e71a607a16f228,PennController,45,0,frases,NULL,PennController,46,_Trial_,End,1738245154417,NULL
1738245685,79d2f0d2275aacd4e4e71a607a16f228,PennController,46,0,frases,NULL,PennController,47,_Trial_,Start,1738245154418,NULL
1738245685,79d2f0d2275aacd4e4e71a607a16f228,PennController,46,0,frases,NULL,Selector,classificacao,Selection,neutra,1738245158852,negativa;neutra;positiva
1738245685,79d2f0d2275aacd4e4e71a607a16f228,PennController,46,0,frases,NULL,PennController,47,_Trial_,End,1738245158853,NULL
1738245685,79d2f0d2275aacd4e4e71a607a16f228,PennController,47,0,frases,NULL,PennController,48,_Trial_,Start,1738245158854,NULL
1738245685,79d2f0d2275aacd4e4e71a607a16f228,PennController,47,0,frases,NULL,Selector,classificacao,Selection,negativa,1738245166319,negativa;neutra;positiva
1738245685,79d2f0d2275aacd4e4e71a607a16f228,PennController,47,0,frases,NULL,PennController,48,_Trial_,End,1738245166320,NULL
1738245685,79d2f0d2275aacd4e4e71a607a16f228,PennController,48,0,frases,NULL,PennController,49,_Trial_,Start,1738245166320,NULL
1738245685,79d2f0d2275aacd4e4e71a607a16f228,PennController,48,0,frases,NULL,Selector,classificacao,Selection,neutra,1738245169898,negativa;neutra;positiva
1738245685,79d2f0d2275aacd4e4e71a607a16f228,PennController,48,0,frases,NULL,PennController,49,_Trial_,End,1738245169899,NULL
1738245685,79d2f0d2275aacd4e4e71a607a16f228,PennController,49,0,frases,NULL,PennController,50,_Trial_,Start,1738245169900,NULL
1738245685,79d2f0d2275aacd4e4e71a607a16f228,PennController,49,0,frases,NULL,Selector,classificacao,Selection,positiva,1738245172544,negativa;neutra;positiva
1738245685,79d2f0d2275aacd4e4e71a607a16f228,PennController,49,0,frases,NULL,PennController,50,_Trial_,End,1738245172545,NULL
1738245685,79d2f0d2275aacd4e4e71a607a16f228,PennController,50,0,frases,NULL,PennController,51,_Trial_,Start,1738245172546,NULL
1738245685,79d2f0d2275aacd4e4e71a607a16f228,PennController,50,0,frases,NULL,Selector,classificacao,Selection,negativa,1738245178584,negativa;neutra;positiva
1738245685,79d2f0d2275aacd4e4e71a607a16f228,PennController,50,0,frases,NULL,PennController,51,_Trial_,End,1738245178585,NULL
1738245685,79d2f0d2275aacd4e4e71a607a16f228,PennController,51,0,frases,NULL,PennController,52,_Trial_,Start,1738245178585,NULL
1738245685,79d2f0d2275aacd4e4e71a607a16f228,PennController,51,0,frases,NULL,Selector,classificacao,Selection,negativa,1738245183420,negativa;neutra;positiva
1738245685,79d2f0d2275aacd4e4e71a607a16f228,PennController,51,0,frases,NULL,PennController,52,_Trial_,End,1738245183421,NULL
1738245685,79d2f0d2275aacd4e4e71a607a16f228,PennController,52,0,frases,NULL,PennController,53,_Trial_,Start,1738245183421,NULL
1738245685,79d2f0d2275aacd4e4e71a607a16f228,PennController,52,0,frases,NULL,Selector,classificacao,Selection,neutra,1738245185546,negativa;neutra;positiva
1738245685,79d2f0d2275aacd4e4e71a607a16f228,PennController,52,0,frases,NULL,PennController,53,_Trial_,End,1738245185546,NULL
1738245685,79d2f0d2275aacd4e4e71a607a16f228,PennController,53,0,frases,NULL,PennController,54,_Trial_,Start,1738245185547,NULL
1738245685,79d2f0d2275aacd4e4e71a607a16f228,PennController,53,0,frases,NULL,Selector,classificacao,Selection,neutra,1738245191350,negativa;neutra;positiva
1738245685,79d2f0d2275aacd4e4e71a607a16f228,PennController,53,0,frases,NULL,PennController,54,_Trial_,End,1738245191351,NULL
1738245685,79d2f0d2275aacd4e4e71a607a16f228,PennController,54,0,frases,NULL,PennController,55,_Trial_,Start,1738245191352,NULL
1738245685,79d2f0d2275aacd4e4e71a607a16f228,PennController,54,0,frases,NULL,Selector,classificacao,Selection,neutra,1738245195192,negativa;neutra;positiva
1738245685,79d2f0d2275aacd4e4e71a607a16f228,PennController,54,0,frases,NULL,PennController,55,_Trial_,End,1738245195193,NULL
1738245685,79d2f0d2275aacd4e4e71a607a16f228,PennController,55,0,frases,NULL,PennController,56,_Trial_,Start,1738245195194,NULL
1738245685,79d2f0d2275aacd4e4e71a607a16f228,PennController,55,0,frases,NULL,Selector,classificacao,Selection,neutra,1738245197466,negativa;neutra;positiva
1738245685,79d2f0d2275aacd4e4e71a607a16f228,PennController,55,0,frases,NULL,PennController,56,_Trial_,End,1738245197466,NULL
1738245685,79d2f0d2275aacd4e4e71a607a16f228,PennController,56,0,frases,NULL,PennController,57,_Trial_,Start,1738245197467,NULL
1738245685,79d2f0d2275aacd4e4e71a607a16f228,PennController,56,0,frases,NULL,Selector,classificacao,Selection,neutra,1738245201181,negativa;neutra;positiva
1738245685,79d2f0d2275aacd4e4e71a607a16f228,PennController,56,0,frases,NULL,PennController,57,_Trial_,End,1738245201183,NULL
1738245685,79d2f0d2275aacd4e4e71a607a16f228,PennController,57,0,frases,NULL,PennController,58,_Trial_,Start,1738245201184,NULL
1738245685,79d2f0d2275aacd4e4e71a607a16f228,PennController,57,0,frases,NULL,Selector,classificacao,Selection,negativa,1738245204771,negativa;neutra;positiva
1738245685,79d2f0d2275aacd4e4e71a607a16f228,PennController,57,0,frases,NULL,PennController,58,_Trial_,End,1738245204772,NULL
1738245685,79d2f0d2275aacd4e4e71a607a16f228,PennController,58,0,frases,NULL,PennController,59,_Trial_,Start,1738245204773,NULL
1738245685,79d2f0d2275aacd4e4e71a607a16f228,PennController,58,0,frases,NULL,Selector,classificacao,Selection,neutra,1738245216686,negativa;neutra;positiva
1738245685,79d2f0d2275aacd4e4e71a607a16f228,PennController,58,0,frases,NULL,PennController,59,_Trial_,End,1738245216687,NULL
1738245685,79d2f0d2275aacd4e4e71a607a16f228,PennController,59,0,frases,NULL,PennController,60,_Trial_,Start,1738245216688,NULL
1738245685,79d2f0d2275aacd4e4e71a607a16f228,PennController,59,0,frases,NULL,Selector,classificacao,Selection,positiva,1738245225294,negativa;neutra;positiva
1738245685,79d2f0d2275aacd4e4e71a607a16f228,PennController,59,0,frases,NULL,PennController,60,_Trial_,End,1738245225294,NULL
1738245685,79d2f0d2275aacd4e4e71a607a16f228,PennController,60,0,frases,NULL,PennController,61,_Trial_,Start,1738245225295,NULL
1738245685,79d2f0d2275aacd4e4e71a607a16f228,PennController,60,0,frases,NULL,Selector,classificacao,Selection,neutra,1738245227142,negativa;neutra;positiva
1738245685,79d2f0d2275aacd4e4e71a607a16f228,PennController,60,0,frases,NULL,PennController,61,_Trial_,End,1738245227143,NULL
1738245685,79d2f0d2275aacd4e4e71a607a16f228,PennController,61,0,frases,NULL,PennController,62,_Trial_,Start,1738245227144,NULL
1738245685,79d2f0d2275aacd4e4e71a607a16f228,PennController,61,0,frases,NULL,Selector,classificacao,Selection,neutra,1738245228434,negativa;neutra;positiva
1738245685,79d2f0d2275aacd4e4e71a607a16f228,PennController,61,0,frases,NULL,PennController,62,_Trial_,End,1738245228434,NULL
1738245685,79d2f0d2275aacd4e4e71a607a16f228,PennController,62,0,frases,NULL,PennController,63,_Trial_,Start,1738245228435,NULL
1738245685,79d2f0d2275aacd4e4e71a607a16f228,PennController,62,0,frases,NULL,Selector,classificacao,Selection,negativa,1738245235645,negativa;neutra;positiva
1738245685,79d2f0d2275aacd4e4e71a607a16f228,PennController,62,0,frases,NULL,PennController,63,_Trial_,End,1738245235646,NULL
1738245685,79d2f0d2275aacd4e4e71a607a16f228,PennController,63,0,frases,NULL,PennController,64,_Trial_,Start,1738245235647,NULL
1738245685,79d2f0d2275aacd4e4e71a607a16f228,PennController,63,0,frases,NULL,Selector,classificacao,Selection,negativa,1738245245033,negativa;neutra;positiva
1738245685,79d2f0d2275aacd4e4e71a607a16f228,PennController,63,0,frases,NULL,PennController,64,_Trial_,End,1738245245034,NULL
1738245685,79d2f0d2275aacd4e4e71a607a16f228,PennController,64,0,frases,NULL,PennController,65,_Trial_,Start,1738245245034,NULL
1738245685,79d2f0d2275aacd4e4e71a607a16f228,PennController,64,0,frases,NULL,Selector,classificacao,Selection,neutra,1738245255492,negativa;neutra;positiva
1738245685,79d2f0d2275aacd4e4e71a607a16f228,PennController,64,0,frases,NULL,PennController,65,_Trial_,End,1738245255493,NULL
1738245685,79d2f0d2275aacd4e4e71a607a16f228,PennController,65,0,frases,NULL,PennController,66,_Trial_,Start,1738245255493,NULL
1738245685,79d2f0d2275aacd4e4e71a607a16f228,PennController,65,0,frases,NULL,Selector,classificacao,Selection,neutra,1738245259085,negativa;neutra;positiva
1738245685,79d2f0d2275aacd4e4e71a607a16f228,PennController,65,0,frases,NULL,PennController,66,_Trial_,End,1738245259087,NULL
1738245685,79d2f0d2275aacd4e4e71a607a16f228,PennController,66,0,frases,NULL,PennController,67,_Trial_,Start,1738245259088,NULL
1738245685,79d2f0d2275aacd4e4e71a607a16f228,PennController,66,0,frases,NULL,Selector,classificacao,Selection,neutra,1738245265622,negativa;neutra;positiva
1738245685,79d2f0d2275aacd4e4e71a607a16f228,PennController,66,0,frases,NULL,PennController,67,_Trial_,End,1738245265623,NULL
1738245685,79d2f0d2275aacd4e4e71a607a16f228,PennController,67,0,frases,NULL,PennController,68,_Trial_,Start,1738245265624,NULL
1738245685,79d2f0d2275aacd4e4e71a607a16f228,PennController,67,0,frases,NULL,Selector,classificacao,Selection,neutra,1738245268349,negativa;neutra;positiva
1738245685,79d2f0d2275aacd4e4e71a607a16f228,PennController,67,0,frases,NULL,PennController,68,_Trial_,End,1738245268350,NULL
1738245685,79d2f0d2275aacd4e4e71a607a16f228,PennController,68,0,frases,NULL,PennController,69,_Trial_,Start,1738245268350,NULL
1738245685,79d2f0d2275aacd4e4e71a607a16f228,PennController,68,0,frases,NULL,Selector,classificacao,Selection,neutra,1738245276676,negativa;neutra;positiva
1738245685,79d2f0d2275aacd4e4e71a607a16f228,PennController,68,0,frases,NULL,PennController,69,_Trial_,End,1738245276677,NULL
1738245685,79d2f0d2275aacd4e4e71a607a16f228,PennController,69,0,frases,NULL,PennController,70,_Trial_,Start,1738245276678,NULL
1738245685,79d2f0d2275aacd4e4e71a607a16f228,PennController,69,0,frases,NULL,Selector,classificacao,Selection,neutra,1738245281846,negativa;neutra;positiva
1738245685,79d2f0d2275aacd4e4e71a607a16f228,PennController,69,0,frases,NULL,PennController,70,_Trial_,End,1738245281847,NULL
1738245685,79d2f0d2275aacd4e4e71a607a16f228,PennController,70,0,frases,NULL,PennController,71,_Trial_,Start,1738245281848,NULL
1738245685,79d2f0d2275aacd4e4e71a607a16f228,PennController,70,0,frases,NULL,Selector,classificacao,Selection,negativa,1738245286230,negativa;neutra;positiva
1738245685,79d2f0d2275aacd4e4e71a607a16f228,PennController,70,0,frases,NULL,PennController,71,_Trial_,End,1738245286231,NULL
1738245685,79d2f0d2275aacd4e4e71a607a16f228,PennController,71,0,frases,NULL,PennController,72,_Trial_,Start,1738245286232,NULL
1738245685,79d2f0d2275aacd4e4e71a607a16f228,PennController,71,0,frases,NULL,Selector,classificacao,Selection,neutra,1738245291264,negativa;neutra;positiva
1738245685,79d2f0d2275aacd4e4e71a607a16f228,PennController,71,0,frases,NULL,PennController,72,_Trial_,End,1738245291265,NULL
1738245685,79d2f0d2275aacd4e4e71a607a16f228,PennController,72,0,frases,NULL,PennController,73,_Trial_,Start,1738245291266,NULL
1738245685,79d2f0d2275aacd4e4e71a607a16f228,PennController,72,0,frases,NULL,Selector,classificacao,Selection,negativa,1738245296958,negativa;neutra;positiva
1738245685,79d2f0d2275aacd4e4e71a607a16f228,PennController,72,0,frases,NULL,PennController,73,_Trial_,End,1738245296959,NULL
1738245685,79d2f0d2275aacd4e4e71a607a16f228,PennController,73,0,frases,NULL,PennController,74,_Trial_,Start,1738245296960,NULL
1738245685,79d2f0d2275aacd4e4e71a607a16f228,PennController,73,0,frases,NULL,Selector,classificacao,Selection,neutra,1738245299138,negativa;neutra;positiva
1738245685,79d2f0d2275aacd4e4e71a607a16f228,PennController,73,0,frases,NULL,PennController,74,_Trial_,End,1738245299139,NULL
1738245685,79d2f0d2275aacd4e4e71a607a16f228,PennController,74,0,frases,NULL,PennController,75,_Trial_,Start,1738245299140,NULL
1738245685,79d2f0d2275aacd4e4e71a607a16f228,PennController,74,0,frases,NULL,Selector,classificacao,Selection,neutra,1738245303044,negativa;neutra;positiva
1738245685,79d2f0d2275aacd4e4e71a607a16f228,PennController,74,0,frases,NULL,PennController,75,_Trial_,End,1738245303045,NULL
1738245685,79d2f0d2275aacd4e4e71a607a16f228,PennController,75,0,frases,NULL,PennController,76,_Trial_,Start,1738245303046,NULL
1738245685,79d2f0d2275aacd4e4e71a607a16f228,PennController,75,0,frases,NULL,Selector,classificacao,Selection,neutra,1738245311244,negativa;neutra;positiva
1738245685,79d2f0d2275aacd4e4e71a607a16f228,PennController,75,0,frases,NULL,PennController,76,_Trial_,End,1738245311245,NULL
1738245685,79d2f0d2275aacd4e4e71a607a16f228,PennController,76,0,frases,NULL,PennController,77,_Trial_,Start,1738245311246,NULL
1738245685,79d2f0d2275aacd4e4e71a607a16f228,PennController,76,0,frases,NULL,Selector,classificacao,Selection,neutra,1738245314750,negativa;neutra;positiva
1738245685,79d2f0d2275aacd4e4e71a607a16f228,PennController,76,0,frases,NULL,PennController,77,_Trial_,End,1738245314751,NULL
1738245685,79d2f0d2275aacd4e4e71a607a16f228,PennController,77,0,frases,NULL,PennController,78,_Trial_,Start,1738245314752,NULL
1738245685,79d2f0d2275aacd4e4e71a607a16f228,PennController,77,0,frases,NULL,Selector,classificacao,Selection,neutra,1738245327185,negativa;neutra;positiva
1738245685,79d2f0d2275aacd4e4e71a607a16f228,PennController,77,0,frases,NULL,PennController,78,_Trial_,End,1738245327186,NULL
1738245685,79d2f0d2275aacd4e4e71a607a16f228,PennController,78,0,frases,NULL,PennController,79,_Trial_,Start,1738245327187,NULL
1738245685,79d2f0d2275aacd4e4e71a607a16f228,PennController,78,0,frases,NULL,Selector,classificacao,Selection,negativa,1738245329937,negativa;neutra;positiva
1738245685,79d2f0d2275aacd4e4e71a607a16f228,PennController,78,0,frases,NULL,PennController,79,_Trial_,End,1738245329938,NULL
1738245685,79d2f0d2275aacd4e4e71a607a16f228,PennController,79,0,frases,NULL,PennController,80,_Trial_,Start,1738245329939,NULL
1738245685,79d2f0d2275aacd4e4e71a607a16f228,PennController,79,0,frases,NULL,Selector,classificacao,Selection,neutra,1738245332009,negativa;neutra;positiva
1738245685,79d2f0d2275aacd4e4e71a607a16f228,PennController,79,0,frases,NULL,PennController,80,_Trial_,End,1738245332010,NULL
1738245685,79d2f0d2275aacd4e4e71a607a16f228,PennController,80,0,frases,NULL,PennController,81,_Trial_,Start,1738245332011,NULL
1738245685,79d2f0d2275aacd4e4e71a607a16f228,PennController,80,0,frases,NULL,Selector,classificacao,Selection,negativa,1738245345573,negativa;neutra;positiva
1738245685,79d2f0d2275aacd4e4e71a607a16f228,PennController,80,0,frases,NULL,PennController,81,_Trial_,End,1738245345574,NULL
1738245685,79d2f0d2275aacd4e4e71a607a16f228,PennController,81,0,frases,NULL,PennController,82,_Trial_,Start,1738245345575,NULL
1738245685,79d2f0d2275aacd4e4e71a607a16f228,PennController,81,0,frases,NULL,Selector,classificacao,Selection,negativa,1738245349721,negativa;neutra;positiva
1738245685,79d2f0d2275aacd4e4e71a607a16f228,PennController,81,0,frases,NULL,PennController,82,_Trial_,End,1738245349722,NULL
1738245685,79d2f0d2275aacd4e4e71a607a16f228,PennController,82,0,frases,NULL,PennController,83,_Trial_,Start,1738245349723,NULL
1738245685,79d2f0d2275aacd4e4e71a607a16f228,PennController,82,0,frases,NULL,Selector,classificacao,Selection,neutra,1738245353594,negativa;neutra;positiva
1738245685,79d2f0d2275aacd4e4e71a607a16f228,PennController,82,0,frases,NULL,PennController,83,_Trial_,End,1738245353596,NULL
1738245685,79d2f0d2275aacd4e4e71a607a16f228,PennController,83,0,frases,NULL,PennController,84,_Trial_,Start,1738245353597,NULL
1738245685,79d2f0d2275aacd4e4e71a607a16f228,PennController,83,0,frases,NULL,Selector,classificacao,Selection,positiva,1738245357393,negativa;neutra;positiva
1738245685,79d2f0d2275aacd4e4e71a607a16f228,PennController,83,0,frases,NULL,PennController,84,_Trial_,End,1738245357394,NULL
1738245685,79d2f0d2275aacd4e4e71a607a16f228,PennController,84,0,frases,NULL,PennController,85,_Trial_,Start,1738245357395,NULL
1738245685,79d2f0d2275aacd4e4e71a607a16f228,PennController,84,0,frases,NULL,Selector,classificacao,Selection,neutra,1738245359799,negativa;neutra;positiva
1738245685,79d2f0d2275aacd4e4e71a607a16f228,PennController,84,0,frases,NULL,PennController,85,_Trial_,End,1738245359800,NULL
1738245685,79d2f0d2275aacd4e4e71a607a16f228,PennController,85,0,frases,NULL,PennController,86,_Trial_,Start,1738245359801,NULL
1738245685,79d2f0d2275aacd4e4e71a607a16f228,PennController,85,0,frases,NULL,Selector,classificacao,Selection,positiva,1738245366683,negativa;neutra;positiva
1738245685,79d2f0d2275aacd4e4e71a607a16f228,PennController,85,0,frases,NULL,PennController,86,_Trial_,End,1738245366684,NULL
1738245685,79d2f0d2275aacd4e4e71a607a16f228,PennController,86,0,frases,NULL,PennController,87,_Trial_,Start,1738245366685,NULL
1738245685,79d2f0d2275aacd4e4e71a607a16f228,PennController,86,0,frases,NULL,Selector,classificacao,Selection,neutra,1738245372883,negativa;neutra;positiva
1738245685,79d2f0d2275aacd4e4e71a607a16f228,PennController,86,0,frases,NULL,PennController,87,_Trial_,End,1738245372884,NULL
1738245685,79d2f0d2275aacd4e4e71a607a16f228,PennController,87,0,frases,NULL,PennController,88,_Trial_,Start,1738245372885,NULL
1738245685,79d2f0d2275aacd4e4e71a607a16f228,PennController,87,0,frases,NULL,Selector,classificacao,Selection,neutra,1738245379817,negativa;neutra;positiva
1738245685,79d2f0d2275aacd4e4e71a607a16f228,PennController,87,0,frases,NULL,PennController,88,_Trial_,End,1738245379818,NULL
1738245685,79d2f0d2275aacd4e4e71a607a16f228,PennController,88,0,frases,NULL,PennController,89,_Trial_,Start,1738245379819,NULL
1738245685,79d2f0d2275aacd4e4e71a607a16f228,PennController,88,0,frases,NULL,Selector,classificacao,Selection,neutra,1738245382096,negativa;neutra;positiva
1738245685,79d2f0d2275aacd4e4e71a607a16f228,PennController,88,0,frases,NULL,PennController,89,_Trial_,End,1738245382097,NULL
1738245685,79d2f0d2275aacd4e4e71a607a16f228,PennController,89,0,frases,NULL,PennController,90,_Trial_,Start,1738245382098,NULL
1738245685,79d2f0d2275aacd4e4e71a607a16f228,PennController,89,0,frases,NULL,Selector,classificacao,Selection,neutra,1738245386536,negativa;neutra;positiva
1738245685,79d2f0d2275aacd4e4e71a607a16f228,PennController,89,0,frases,NULL,PennController,90,_Trial_,End,1738245386537,NULL
1738245685,79d2f0d2275aacd4e4e71a607a16f228,PennController,90,0,frases,NULL,PennController,91,_Trial_,Start,1738245386538,NULL
1738245685,79d2f0d2275aacd4e4e71a607a16f228,PennController,90,0,frases,NULL,Selector,classificacao,Selection,negativa,1738245392751,negativa;neutra;positiva
