#
# Results on Thu, 23 Jan 2025 14:57:34 GMT
# USER AGENT: Mozilla/5.0 (Windows NT 10.0; Win64; x64; rv:134.0) Gecko/20100101 Firefox/134.0
# Design number was non-random = 0
#
# Columns below this comment are as follows:
# 1. Results reception time.
# 2. MD5 hash of participant's IP address.
# 3. Controller name.
# 4. Order number of item.
# 5. Inner element number.
# 6. Label.
# 7. Latin Square Group.
# 8. PennElementType.
# 9. PennElementName.
# 10. Parameter.
# 11. Value.
# 12. EventTime.
# 13. Comments.
1737644254,bc2584302fffead698e1809107a60040,PennController,0,0,TCLE,NULL,PennController,0,_Trial_,Start,1737643437468,NULL
1737644254,bc2584302fffead698e1809107a60040,PennController,0,0,TCLE,NULL,PennController,0,_Trial_,End,1737643442781,NULL
1737644254,bc2584302fffead698e1809107a60040,PennController,3,0,instrucoes,NULL,PennController,3,_Trial_,Start,1737643442783,NULL
1737644254,bc2584302fffead698e1809107a60040,PennController,3,0,instrucoes,NULL,PennController,3,_Trial_,End,1737643444062,NULL
1737644254,bc2584302fffead698e1809107a60040,PennController,1,0,genero,NULL,PennController,1,_Trial_,Start,1737643444065,NULL
1737644254,bc2584302fffead698e1809107a60040,PennController,1,0,genero,NULL,DropDown,selecionaGenero,Selected,Masculino,1737643445475,0
1737644254,bc2584302fffead698e1809107a60040,PennController,1,0,genero,NULL,PennController,1,_Trial_,End,1737643446724,NULL
1737644254,bc2584302fffead698e1809107a60040,PennController,4,0,frases,NULL,PennController,5,_Trial_,Start,1737643446725,NULL
1737644254,bc2584302fffead698e1809107a60040,PennController,4,0,frases,NULL,Selector,classificacao,Selection,positiva,1737643450422,negativa;neutra;positiva
1737644254,bc2584302fffead698e1809107a60040,PennController,4,0,frases,NULL,PennController,5,_Trial_,End,1737643450423,NULL
1737644254,bc2584302fffead698e1809107a60040,PennController,5,0,frases,NULL,PennController,6,_Trial_,Start,1737643450424,NULL
1737644254,bc2584302fffead698e1809107a60040,PennController,5,0,frases,NULL,Selector,classificacao,Selection,negativa,1737643454276,negativa;neutra;positiva
1737644254,bc2584302fffead698e1809107a60040,PennController,5,0,frases,NULL,PennController,6,_Trial_,End,1737643454277,NULL
1737644254,bc2584302fffead698e1809107a60040,PennController,6,0,frases,NULL,PennController,7,_Trial_,Start,1737643454278,NULL
1737644254,bc2584302fffead698e1809107a60040,PennController,6,0,frases,NULL,Selector,classificacao,Selection,positiva,1737643455915,negativa;neutra;positiva
1737644254,bc2584302fffead698e1809107a60040,PennController,6,0,frases,NULL,PennController,7,_Trial_,End,1737643455916,NULL
1737644254,bc2584302fffead698e1809107a60040,PennController,7,0,frases,NULL,PennController,8,_Trial_,Start,1737643455917,NULL
1737644254,bc2584302fffead698e1809107a60040,PennController,7,0,frases,NULL,Selector,classificacao,Selection,negativa,1737643459819,negativa;neutra;positiva
1737644254,bc2584302fffead698e1809107a60040,PennController,7,0,frases,NULL,PennController,8,_Trial_,End,1737643459821,NULL
1737644254,bc2584302fffead698e1809107a60040,PennController,8,0,frases,NULL,PennController,9,_Trial_,Start,1737643459821,NULL
1737644254,bc2584302fffead698e1809107a60040,PennController,8,0,frases,NULL,Selector,classificacao,Selection,negativa,1737643466532,negativa;neutra;positiva
1737644254,bc2584302fffead698e1809107a60040,PennController,8,0,frases,NULL,PennController,9,_Trial_,End,1737643466533,NULL
1737644254,bc2584302fffead698e1809107a60040,PennController,9,0,frases,NULL,PennController,10,_Trial_,Start,1737643466533,NULL
1737644254,bc2584302fffead698e1809107a60040,PennController,9,0,frases,NULL,Selector,classificacao,Selection,positiva,1737643470884,negativa;neutra;positiva
1737644254,bc2584302fffead698e1809107a60040,PennController,9,0,frases,NULL,PennController,10,_Trial_,End,1737643470885,NULL
1737644254,bc2584302fffead698e1809107a60040,PennController,10,0,frases,NULL,PennController,11,_Trial_,Start,1737643470886,NULL
1737644254,bc2584302fffead698e1809107a60040,PennController,10,0,frases,NULL,Selector,classificacao,Selection,positiva,1737643473755,negativa;neutra;positiva
1737644254,bc2584302fffead698e1809107a60040,PennController,10,0,frases,NULL,PennController,11,_Trial_,End,1737643473756,NULL
1737644254,bc2584302fffead698e1809107a60040,PennController,11,0,frases,NULL,PennController,12,_Trial_,Start,1737643473758,NULL
1737644254,bc2584302fffead698e1809107a60040,PennController,11,0,frases,NULL,Selector,classificacao,Selection,negativa,1737643477004,negativa;neutra;positiva
1737644254,bc2584302fffead698e1809107a60040,PennController,11,0,frases,NULL,PennController,12,_Trial_,End,1737643477005,NULL
1737644254,bc2584302fffead698e1809107a60040,PennController,12,0,frases,NULL,PennController,13,_Trial_,Start,1737643477005,NULL
1737644254,bc2584302fffead698e1809107a60040,PennController,12,0,frases,NULL,Selector,classificacao,Selection,positiva,1737643480772,negativa;neutra;positiva
1737644254,bc2584302fffead698e1809107a60040,PennController,12,0,frases,NULL,PennController,13,_Trial_,End,1737643480773,NULL
1737644254,bc2584302fffead698e1809107a60040,PennController,13,0,frases,NULL,PennController,14,_Trial_,Start,1737643480773,NULL
1737644254,bc2584302fffead698e1809107a60040,PennController,13,0,frases,NULL,Selector,classificacao,Selection,neutra,1737643482827,negativa;neutra;positiva
1737644254,bc2584302fffead698e1809107a60040,PennController,13,0,frases,NULL,PennController,14,_Trial_,End,1737643482828,NULL
1737644254,bc2584302fffead698e1809107a60040,PennController,14,0,frases,NULL,PennController,15,_Trial_,Start,1737643482829,NULL
1737644254,bc2584302fffead698e1809107a60040,PennController,14,0,frases,NULL,Selector,classificacao,Selection,positiva,1737643485139,negativa;neutra;positiva
1737644254,bc2584302fffead698e1809107a60040,PennController,14,0,frases,NULL,PennController,15,_Trial_,End,1737643485140,NULL
1737644254,bc2584302fffead698e1809107a60040,PennController,15,0,frases,NULL,PennController,16,_Trial_,Start,1737643485141,NULL
1737644254,bc2584302fffead698e1809107a60040,PennController,15,0,frases,NULL,Selector,classificacao,Selection,negativa,1737643490715,negativa;neutra;positiva
1737644254,bc2584302fffead698e1809107a60040,PennController,15,0,frases,NULL,PennController,16,_Trial_,End,1737643490716,NULL
1737644254,bc2584302fffead698e1809107a60040,PennController,16,0,frases,NULL,PennController,17,_Trial_,Start,1737643490717,NULL
1737644254,bc2584302fffead698e1809107a60040,PennController,16,0,frases,NULL,Selector,classificacao,Selection,positiva,1737643492604,negativa;neutra;positiva
1737644254,bc2584302fffead698e1809107a60040,PennController,16,0,frases,NULL,PennController,17,_Trial_,End,1737643492605,NULL
1737644254,bc2584302fffead698e1809107a60040,PennController,17,0,frases,NULL,PennController,18,_Trial_,Start,1737643492605,NULL
1737644254,bc2584302fffead698e1809107a60040,PennController,17,0,frases,NULL,Selector,classificacao,Selection,negativa,1737643516916,negativa;neutra;positiva
1737644254,bc2584302fffead698e1809107a60040,PennController,17,0,frases,NULL,PennController,18,_Trial_,End,1737643516918,NULL
1737644254,bc2584302fffead698e1809107a60040,PennController,18,0,frases,NULL,PennController,19,_Trial_,Start,1737643516921,NULL
1737644254,bc2584302fffead698e1809107a60040,PennController,18,0,frases,NULL,Selector,classificacao,Selection,positiva,1737643525044,negativa;neutra;positiva
1737644254,bc2584302fffead698e1809107a60040,PennController,18,0,frases,NULL,PennController,19,_Trial_,End,1737643525045,NULL
1737644254,bc2584302fffead698e1809107a60040,PennController,19,0,frases,NULL,PennController,20,_Trial_,Start,1737643525046,NULL
1737644254,bc2584302fffead698e1809107a60040,PennController,19,0,frases,NULL,Selector,classificacao,Selection,negativa,1737643529180,negativa;neutra;positiva
1737644254,bc2584302fffead698e1809107a60040,PennController,19,0,frases,NULL,PennController,20,_Trial_,End,1737643529181,NULL
1737644254,bc2584302fffead698e1809107a60040,PennController,20,0,frases,NULL,PennController,21,_Trial_,Start,1737643529182,NULL
1737644254,bc2584302fffead698e1809107a60040,PennController,20,0,frases,NULL,Selector,classificacao,Selection,neutra,1737643533045,negativa;neutra;positiva
1737644254,bc2584302fffead698e1809107a60040,PennController,20,0,frases,NULL,PennController,21,_Trial_,End,1737643533046,NULL
1737644254,bc2584302fffead698e1809107a60040,PennController,21,0,frases,NULL,PennController,22,_Trial_,Start,1737643533047,NULL
1737644254,bc2584302fffead698e1809107a60040,PennController,21,0,frases,NULL,Selector,classificacao,Selection,positiva,1737643537658,negativa;neutra;positiva
1737644254,bc2584302fffead698e1809107a60040,PennController,21,0,frases,NULL,PennController,22,_Trial_,End,1737643537659,NULL
1737644254,bc2584302fffead698e1809107a60040,PennController,22,0,frases,NULL,PennController,23,_Trial_,Start,1737643537659,NULL
1737644254,bc2584302fffead698e1809107a60040,PennController,22,0,frases,NULL,Selector,classificacao,Selection,positiva,1737643539963,negativa;neutra;positiva
1737644254,bc2584302fffead698e1809107a60040,PennController,22,0,frases,NULL,PennController,23,_Trial_,End,1737643539964,NULL
1737644254,bc2584302fffead698e1809107a60040,PennController,23,0,frases,NULL,PennController,24,_Trial_,Start,1737643539964,NULL
1737644254,bc2584302fffead698e1809107a60040,PennController,23,0,frases,NULL,Selector,classificacao,Selection,negativa,1737643541596,negativa;neutra;positiva
1737644254,bc2584302fffead698e1809107a60040,PennController,23,0,frases,NULL,PennController,24,_Trial_,End,1737643541597,NULL
1737644254,bc2584302fffead698e1809107a60040,PennController,24,0,frases,NULL,PennController,25,_Trial_,Start,1737643541597,NULL
1737644254,bc2584302fffead698e1809107a60040,PennController,24,0,frases,NULL,Selector,classificacao,Selection,positiva,1737643549227,negativa;neutra;positiva
1737644254,bc2584302fffead698e1809107a60040,PennController,24,0,frases,NULL,PennController,25,_Trial_,End,1737643549228,NULL
1737644254,bc2584302fffead698e1809107a60040,PennController,25,0,frases,NULL,PennController,26,_Trial_,Start,1737643549228,NULL
1737644254,bc2584302fffead698e1809107a60040,PennController,25,0,frases,NULL,Selector,classificacao,Selection,positiva,1737643550724,negativa;neutra;positiva
1737644254,bc2584302fffead698e1809107a60040,PennController,25,0,frases,NULL,PennController,26,_Trial_,End,1737643550725,NULL
1737644254,bc2584302fffead698e1809107a60040,PennController,26,0,frases,NULL,PennController,27,_Trial_,Start,1737643550725,NULL
1737644254,bc2584302fffead698e1809107a60040,PennController,26,0,frases,NULL,Selector,classificacao,Selection,negativa,1737643554164,negativa;neutra;positiva
1737644254,bc2584302fffead698e1809107a60040,PennController,26,0,frases,NULL,PennController,27,_Trial_,End,1737643554165,NULL
1737644254,bc2584302fffead698e1809107a60040,PennController,27,0,frases,NULL,PennController,28,_Trial_,Start,1737643554165,NULL
1737644254,bc2584302fffead698e1809107a60040,PennController,27,0,frases,NULL,Selector,classificacao,Selection,positiva,1737643557730,negativa;neutra;positiva
1737644254,bc2584302fffead698e1809107a60040,PennController,27,0,frases,NULL,PennController,28,_Trial_,End,1737643557732,NULL
1737644254,bc2584302fffead698e1809107a60040,PennController,28,0,frases,NULL,PennController,29,_Trial_,Start,1737643557733,NULL
1737644254,bc2584302fffead698e1809107a60040,PennController,28,0,frases,NULL,Selector,classificacao,Selection,neutra,1737643561187,negativa;neutra;positiva
1737644254,bc2584302fffead698e1809107a60040,PennController,28,0,frases,NULL,PennController,29,_Trial_,End,1737643561188,NULL
1737644254,bc2584302fffead698e1809107a60040,PennController,29,0,frases,NULL,PennController,30,_Trial_,Start,1737643561189,NULL
1737644254,bc2584302fffead698e1809107a60040,PennController,29,0,frases,NULL,Selector,classificacao,Selection,positiva,1737643565786,negativa;neutra;positiva
1737644254,bc2584302fffead698e1809107a60040,PennController,29,0,frases,NULL,PennController,30,_Trial_,End,1737643565788,NULL
1737644254,bc2584302fffead698e1809107a60040,PennController,30,0,frases,NULL,PennController,31,_Trial_,Start,1737643565788,NULL
1737644254,bc2584302fffead698e1809107a60040,PennController,30,0,frases,NULL,Selector,classificacao,Selection,positiva,1737643567501,negativa;neutra;positiva
1737644254,bc2584302fffead698e1809107a60040,PennController,30,0,frases,NULL,PennController,31,_Trial_,End,1737643567502,NULL
1737644254,bc2584302fffead698e1809107a60040,PennController,31,0,frases,NULL,PennController,32,_Trial_,Start,1737643567502,NULL
1737644254,bc2584302fffead698e1809107a60040,PennController,31,0,frases,NULL,Selector,classificacao,Selection,negativa,1737643569772,negativa;neutra;positiva
1737644254,bc2584302fffead698e1809107a60040,PennController,31,0,frases,NULL,PennController,32,_Trial_,End,1737643569773,NULL
1737644254,bc2584302fffead698e1809107a60040,PennController,32,0,frases,NULL,PennController,33,_Trial_,Start,1737643569773,NULL
1737644254,bc2584302fffead698e1809107a60040,PennController,32,0,frases,NULL,Selector,classificacao,Selection,negativa,1737643572835,negativa;neutra;positiva
1737644254,bc2584302fffead698e1809107a60040,PennController,32,0,frases,NULL,PennController,33,_Trial_,End,1737643572836,NULL
1737644254,bc2584302fffead698e1809107a60040,PennController,33,0,frases,NULL,PennController,34,_Trial_,Start,1737643572836,NULL
1737644254,bc2584302fffead698e1809107a60040,PennController,33,0,frases,NULL,Selector,classificacao,Selection,positiva,1737643575843,negativa;neutra;positiva
1737644254,bc2584302fffead698e1809107a60040,PennController,33,0,frases,NULL,PennController,34,_Trial_,End,1737643575844,NULL
1737644254,bc2584302fffead698e1809107a60040,PennController,34,0,frases,NULL,PennController,35,_Trial_,Start,1737643575844,NULL
1737644254,bc2584302fffead698e1809107a60040,PennController,34,0,frases,NULL,Selector,classificacao,Selection,negativa,1737643581267,negativa;neutra;positiva
1737644254,bc2584302fffead698e1809107a60040,PennController,34,0,frases,NULL,PennController,35,_Trial_,End,1737643581267,NULL
1737644254,bc2584302fffead698e1809107a60040,PennController,35,0,frases,NULL,PennController,36,_Trial_,Start,1737643581269,NULL
1737644254,bc2584302fffead698e1809107a60040,PennController,35,0,frases,NULL,Selector,classificacao,Selection,neutra,1737643586492,negativa;neutra;positiva
1737644254,bc2584302fffead698e1809107a60040,PennController,35,0,frases,NULL,PennController,36,_Trial_,End,1737643586492,NULL
1737644254,bc2584302fffead698e1809107a60040,PennController,36,0,frases,NULL,PennController,37,_Trial_,Start,1737643586493,NULL
1737644254,bc2584302fffead698e1809107a60040,PennController,36,0,frases,NULL,Selector,classificacao,Selection,positiva,1737643589530,negativa;neutra;positiva
1737644254,bc2584302fffead698e1809107a60040,PennController,36,0,frases,NULL,PennController,37,_Trial_,End,1737643589531,NULL
1737644254,bc2584302fffead698e1809107a60040,PennController,37,0,frases,NULL,PennController,38,_Trial_,Start,1737643589531,NULL
1737644254,bc2584302fffead698e1809107a60040,PennController,37,0,frases,NULL,Selector,classificacao,Selection,neutra,1737643593204,negativa;neutra;positiva
1737644254,bc2584302fffead698e1809107a60040,PennController,37,0,frases,NULL,PennController,38,_Trial_,End,1737643593204,NULL
1737644254,bc2584302fffead698e1809107a60040,PennController,38,0,frases,NULL,PennController,39,_Trial_,Start,1737643593205,NULL
1737644254,bc2584302fffead698e1809107a60040,PennController,38,0,frases,NULL,Selector,classificacao,Selection,neutra,1737643596283,negativa;neutra;positiva
1737644254,bc2584302fffead698e1809107a60040,PennController,38,0,frases,NULL,PennController,39,_Trial_,End,1737643596283,NULL
1737644254,bc2584302fffead698e1809107a60040,PennController,39,0,frases,NULL,PennController,40,_Trial_,Start,1737643596284,NULL
1737644254,bc2584302fffead698e1809107a60040,PennController,39,0,frases,NULL,Selector,classificacao,Selection,positiva,1737643600643,negativa;neutra;positiva
1737644254,bc2584302fffead698e1809107a60040,PennController,39,0,frases,NULL,PennController,40,_Trial_,End,1737643600644,NULL
1737644254,bc2584302fffead698e1809107a60040,PennController,40,0,frases,NULL,PennController,41,_Trial_,Start,1737643600644,NULL
1737644254,bc2584302fffead698e1809107a60040,PennController,40,0,frases,NULL,Selector,classificacao,Selection,positiva,1737643610172,negativa;neutra;positiva
1737644254,bc2584302fffead698e1809107a60040,PennController,40,0,frases,NULL,PennController,41,_Trial_,End,1737643610173,NULL
1737644254,bc2584302fffead698e1809107a60040,PennController,41,0,frases,NULL,PennController,42,_Trial_,Start,1737643610173,NULL
1737644254,bc2584302fffead698e1809107a60040,PennController,41,0,frases,NULL,Selector,classificacao,Selection,positiva,1737643611468,negativa;neutra;positiva
1737644254,bc2584302fffead698e1809107a60040,PennController,41,0,frases,NULL,PennController,42,_Trial_,End,1737643611468,NULL
1737644254,bc2584302fffead698e1809107a60040,PennController,42,0,frases,NULL,PennController,43,_Trial_,Start,1737643611469,NULL
1737644254,bc2584302fffead698e1809107a60040,PennController,42,0,frases,NULL,Selector,classificacao,Selection,negativa,1737643617859,negativa;neutra;positiva
1737644254,bc2584302fffead698e1809107a60040,PennController,42,0,frases,NULL,PennController,43,_Trial_,End,1737643617860,NULL
1737644254,bc2584302fffead698e1809107a60040,PennController,43,0,frases,NULL,PennController,44,_Trial_,Start,1737643617860,NULL
1737644254,bc2584302fffead698e1809107a60040,PennController,43,0,frases,NULL,Selector,classificacao,Selection,neutra,1737643639353,negativa;neutra;positiva
1737644254,bc2584302fffead698e1809107a60040,PennController,43,0,frases,NULL,PennController,44,_Trial_,End,1737643639354,NULL
1737644254,bc2584302fffead698e1809107a60040,PennController,44,0,frases,NULL,PennController,45,_Trial_,Start,1737643639354,NULL
1737644254,bc2584302fffead698e1809107a60040,PennController,44,0,frases,NULL,Selector,classificacao,Selection,positiva,1737643640964,negativa;neutra;positiva
1737644254,bc2584302fffead698e1809107a60040,PennController,44,0,frases,NULL,PennController,45,_Trial_,End,1737643640964,NULL
1737644254,bc2584302fffead698e1809107a60040,PennController,45,0,frases,NULL,PennController,46,_Trial_,Start,1737643640965,NULL
1737644254,bc2584302fffead698e1809107a60040,PennController,45,0,frases,NULL,Selector,classificacao,Selection,positiva,1737643644932,negativa;neutra;positiva
1737644254,bc2584302fffead698e1809107a60040,PennController,45,0,frases,NULL,PennController,46,_Trial_,End,1737643644933,NULL
1737644254,bc2584302fffead698e1809107a60040,PennController,46,0,frases,NULL,PennController,47,_Trial_,Start,1737643644933,NULL
1737644254,bc2584302fffead698e1809107a60040,PennController,46,0,frases,NULL,Selector,classificacao,Selection,positiva,1737643647923,negativa;neutra;positiva
1737644254,bc2584302fffead698e1809107a60040,PennController,46,0,frases,NULL,PennController,47,_Trial_,End,1737643647924,NULL
1737644254,bc2584302fffead698e1809107a60040,PennController,47,0,frases,NULL,PennController,48,_Trial_,Start,1737643647924,NULL
1737644254,bc2584302fffead698e1809107a60040,PennController,47,0,frases,NULL,Selector,classificacao,Selection,positiva,1737643650771,negativa;neutra;positiva
1737644254,bc2584302fffead698e1809107a60040,PennController,47,0,frases,NULL,PennController,48,_Trial_,End,1737643650772,NULL
1737644254,bc2584302fffead698e1809107a60040,PennController,48,0,frases,NULL,PennController,49,_Trial_,Start,1737643650772,NULL
1737644254,bc2584302fffead698e1809107a60040,PennController,48,0,frases,NULL,Selector,classificacao,Selection,negativa,1737643659435,negativa;neutra;positiva
1737644254,bc2584302fffead698e1809107a60040,PennController,48,0,frases,NULL,PennController,49,_Trial_,End,1737643659436,NULL
1737644254,bc2584302fffead698e1809107a60040,PennController,49,0,frases,NULL,PennController,50,_Trial_,Start,1737643659436,NULL
1737644254,bc2584302fffead698e1809107a60040,PennController,49,0,frases,NULL,Selector,classificacao,Selection,negativa,1737643669650,negativa;neutra;positiva
1737644254,bc2584302fffead698e1809107a60040,PennController,49,0,frases,NULL,PennController,50,_Trial_,End,1737643669651,NULL
1737644254,bc2584302fffead698e1809107a60040,PennController,50,0,frases,NULL,PennController,51,_Trial_,Start,1737643669652,NULL
1737644254,bc2584302fffead698e1809107a60040,PennController,50,0,frases,NULL,Selector,classificacao,Selection,negativa,1737643674508,negativa;neutra;positiva
1737644254,bc2584302fffead698e1809107a60040,PennController,50,0,frases,NULL,PennController,51,_Trial_,End,1737643674508,NULL
1737644254,bc2584302fffead698e1809107a60040,PennController,51,0,frases,NULL,PennController,52,_Trial_,Start,1737643674509,NULL
1737644254,bc2584302fffead698e1809107a60040,PennController,51,0,frases,NULL,Selector,classificacao,Selection,positiva,1737643677628,negativa;neutra;positiva
1737644254,bc2584302fffead698e1809107a60040,PennController,51,0,frases,NULL,PennController,52,_Trial_,End,1737643677628,NULL
1737644254,bc2584302fffead698e1809107a60040,PennController,52,0,frases,NULL,PennController,53,_Trial_,Start,1737643677629,NULL
1737644254,bc2584302fffead698e1809107a60040,PennController,52,0,frases,NULL,Selector,classificacao,Selection,neutra,1737643683298,negativa;neutra;positiva
1737644254,bc2584302fffead698e1809107a60040,PennController,52,0,frases,NULL,PennController,53,_Trial_,End,1737643683299,NULL
1737644254,bc2584302fffead698e1809107a60040,PennController,53,0,frases,NULL,PennController,54,_Trial_,Start,1737643683299,NULL
1737644254,bc2584302fffead698e1809107a60040,PennController,53,0,frases,NULL,Selector,classificacao,Selection,negativa,1737643689212,negativa;neutra;positiva
1737644254,bc2584302fffead698e1809107a60040,PennController,53,0,frases,NULL,PennController,54,_Trial_,End,1737643689213,NULL
1737644254,bc2584302fffead698e1809107a60040,PennController,54,0,frases,NULL,PennController,55,_Trial_,Start,1737643689213,NULL
1737644254,bc2584302fffead698e1809107a60040,PennController,54,0,frases,NULL,Selector,classificacao,Selection,positiva,1737643691499,negativa;neutra;positiva
1737644254,bc2584302fffead698e1809107a60040,PennController,54,0,frases,NULL,PennController,55,_Trial_,End,1737643691500,NULL
1737644254,bc2584302fffead698e1809107a60040,PennController,55,0,frases,NULL,PennController,56,_Trial_,Start,1737643691500,NULL
1737644254,bc2584302fffead698e1809107a60040,PennController,55,0,frases,NULL,Selector,classificacao,Selection,positiva,1737643695747,negativa;neutra;positiva
1737644254,bc2584302fffead698e1809107a60040,PennController,55,0,frases,NULL,PennController,56,_Trial_,End,1737643695747,NULL
1737644254,bc2584302fffead698e1809107a60040,PennController,56,0,frases,NULL,PennController,57,_Trial_,Start,1737643695748,NULL
1737644254,bc2584302fffead698e1809107a60040,PennController,56,0,frases,NULL,Selector,classificacao,Selection,neutra,1737643698466,negativa;neutra;positiva
1737644254,bc2584302fffead698e1809107a60040,PennController,56,0,frases,NULL,PennController,57,_Trial_,End,1737643698466,NULL
1737644254,bc2584302fffead698e1809107a60040,PennController,57,0,frases,NULL,PennController,58,_Trial_,Start,1737643698468,NULL
1737644254,bc2584302fffead698e1809107a60040,PennController,57,0,frases,NULL,Selector,classificacao,Selection,negativa,1737643701435,negativa;neutra;positiva
1737644254,bc2584302fffead698e1809107a60040,PennController,57,0,frases,NULL,PennController,58,_Trial_,End,1737643701436,NULL
1737644254,bc2584302fffead698e1809107a60040,PennController,58,0,frases,NULL,PennController,59,_Trial_,Start,1737643701436,NULL
1737644254,bc2584302fffead698e1809107a60040,PennController,58,0,frases,NULL,Selector,classificacao,Selection,positiva,1737643705547,negativa;neutra;positiva
1737644254,bc2584302fffead698e1809107a60040,PennController,58,0,frases,NULL,PennController,59,_Trial_,End,1737643705548,NULL
1737644254,bc2584302fffead698e1809107a60040,PennController,59,0,frases,NULL,PennController,60,_Trial_,Start,1737643705549,NULL
1737644254,bc2584302fffead698e1809107a60040,PennController,59,0,frases,NULL,Selector,classificacao,Selection,negativa,1737643728771,negativa;neutra;positiva
1737644254,bc2584302fffead698e1809107a60040,PennController,59,0,frases,NULL,PennController,60,_Trial_,End,1737643728772,NULL
1737644254,bc2584302fffead698e1809107a60040,PennController,60,0,frases,NULL,PennController,61,_Trial_,Start,1737643728772,NULL
1737644254,bc2584302fffead698e1809107a60040,PennController,60,0,frases,NULL,Selector,classificacao,Selection,negativa,1737643731153,negativa;neutra;positiva
1737644254,bc2584302fffead698e1809107a60040,PennController,60,0,frases,NULL,PennController,61,_Trial_,End,1737643731154,NULL
1737644254,bc2584302fffead698e1809107a60040,PennController,61,0,frases,NULL,PennController,62,_Trial_,Start,1737643731155,NULL
1737644254,bc2584302fffead698e1809107a60040,PennController,61,0,frases,NULL,Selector,classificacao,Selection,positiva,1737643735787,negativa;neutra;positiva
1737644254,bc2584302fffead698e1809107a60040,PennController,61,0,frases,NULL,PennController,62,_Trial_,End,1737643735788,NULL
1737644254,bc2584302fffead698e1809107a60040,PennController,62,0,frases,NULL,PennController,63,_Trial_,Start,1737643735788,NULL
1737644254,bc2584302fffead698e1809107a60040,PennController,62,0,frases,NULL,Selector,classificacao,Selection,neutra,1737643742307,negativa;neutra;positiva
1737644254,bc2584302fffead698e1809107a60040,PennController,62,0,frases,NULL,PennController,63,_Trial_,End,1737643742308,NULL
1737644254,bc2584302fffead698e1809107a60040,PennController,63,0,frases,NULL,PennController,64,_Trial_,Start,1737643742308,NULL
1737644254,bc2584302fffead698e1809107a60040,PennController,63,0,frases,NULL,Selector,classificacao,Selection,negativa,1737643747345,negativa;neutra;positiva
1737644254,bc2584302fffead698e1809107a60040,PennController,63,0,frases,NULL,PennController,64,_Trial_,End,1737643747346,NULL
1737644254,bc2584302fffead698e1809107a60040,PennController,64,0,frases,NULL,PennController,65,_Trial_,Start,1737643747347,NULL
1737644254,bc2584302fffead698e1809107a60040,PennController,64,0,frases,NULL,Selector,classificacao,Selection,neutra,1737643751307,negativa;neutra;positiva
1737644254,bc2584302fffead698e1809107a60040,PennController,64,0,frases,NULL,PennController,65,_Trial_,End,1737643751308,NULL
1737644254,bc2584302fffead698e1809107a60040,PennController,65,0,frases,NULL,PennController,66,_Trial_,Start,1737643751309,NULL
1737644254,bc2584302fffead698e1809107a60040,PennController,65,0,frases,NULL,Selector,classificacao,Selection,neutra,1737643764418,negativa;neutra;positiva
1737644254,bc2584302fffead698e1809107a60040,PennController,65,0,frases,NULL,PennController,66,_Trial_,End,1737643764419,NULL
1737644254,bc2584302fffead698e1809107a60040,PennController,66,0,frases,NULL,PennController,67,_Trial_,Start,1737643764420,NULL
1737644254,bc2584302fffead698e1809107a60040,PennController,66,0,frases,NULL,Selector,classificacao,Selection,negativa,1737643767161,negativa;neutra;positiva
1737644254,bc2584302fffead698e1809107a60040,PennController,66,0,frases,NULL,PennController,67,_Trial_,End,1737643767162,NULL
1737644254,bc2584302fffead698e1809107a60040,PennController,67,0,frases,NULL,PennController,68,_Trial_,Start,1737643767163,NULL
1737644254,bc2584302fffead698e1809107a60040,PennController,67,0,frases,NULL,Selector,classificacao,Selection,negativa,1737643768706,negativa;neutra;positiva
1737644254,bc2584302fffead698e1809107a60040,PennController,67,0,frases,NULL,PennController,68,_Trial_,End,1737643768708,NULL
1737644254,bc2584302fffead698e1809107a60040,PennController,68,0,frases,NULL,PennController,69,_Trial_,Start,1737643768708,NULL
1737644254,bc2584302fffead698e1809107a60040,PennController,68,0,frases,NULL,Selector,classificacao,Selection,neutra,1737643770852,negativa;neutra;positiva
1737644254,bc2584302fffead698e1809107a60040,PennController,68,0,frases,NULL,PennController,69,_Trial_,End,1737643770853,NULL
1737644254,bc2584302fffead698e1809107a60040,PennController,69,0,frases,NULL,PennController,70,_Trial_,Start,1737643770853,NULL
1737644254,bc2584302fffead698e1809107a60040,PennController,69,0,frases,NULL,Selector,classificacao,Selection,neutra,1737643780620,negativa;neutra;positiva
1737644254,bc2584302fffead698e1809107a60040,PennController,69,0,frases,NULL,PennController,70,_Trial_,End,1737643780620,NULL
1737644254,bc2584302fffead698e1809107a60040,PennController,70,0,frases,NULL,PennController,71,_Trial_,Start,1737643780621,NULL
1737644254,bc2584302fffead698e1809107a60040,PennController,70,0,frases,NULL,Selector,classificacao,Selection,positiva,1737643783042,negativa;neutra;positiva
1737644254,bc2584302fffead698e1809107a60040,PennController,70,0,frases,NULL,PennController,71,_Trial_,End,1737643783043,NULL
1737644254,bc2584302fffead698e1809107a60040,PennController,71,0,frases,NULL,PennController,72,_Trial_,Start,1737643783043,NULL
1737644254,bc2584302fffead698e1809107a60040,PennController,71,0,frases,NULL,Selector,classificacao,Selection,negativa,1737643786775,negativa;neutra;positiva
1737644254,bc2584302fffead698e1809107a60040,PennController,71,0,frases,NULL,PennController,72,_Trial_,End,1737643786776,NULL
1737644254,bc2584302fffead698e1809107a60040,PennController,72,0,frases,NULL,PennController,73,_Trial_,Start,1737643786776,NULL
1737644254,bc2584302fffead698e1809107a60040,PennController,72,0,frases,NULL,Selector,classificacao,Selection,positiva,1737643789186,negativa;neutra;positiva
1737644254,bc2584302fffead698e1809107a60040,PennController,72,0,frases,NULL,PennController,73,_Trial_,End,1737643789187,NULL
1737644254,bc2584302fffead698e1809107a60040,PennController,73,0,frases,NULL,PennController,74,_Trial_,Start,1737643789188,NULL
1737644254,bc2584302fffead698e1809107a60040,PennController,73,0,frases,NULL,Selector,classificacao,Selection,positiva,1737643792858,negativa;neutra;positiva
1737644254,bc2584302fffead698e1809107a60040,PennController,73,0,frases,NULL,PennController,74,_Trial_,End,1737643792859,NULL
1737644254,bc2584302fffead698e1809107a60040,PennController,74,0,frases,NULL,PennController,75,_Trial_,Start,1737643792859,NULL
1737644254,bc2584302fffead698e1809107a60040,PennController,74,0,frases,NULL,Selector,classificacao,Selection,negativa,1737643794683,negativa;neutra;positiva
1737644254,bc2584302fffead698e1809107a60040,PennController,74,0,frases,NULL,PennController,75,_Trial_,End,1737643794684,NULL
1737644254,bc2584302fffead698e1809107a60040,PennController,75,0,frases,NULL,PennController,76,_Trial_,Start,1737643794685,NULL
1737644254,bc2584302fffead698e1809107a60040,PennController,75,0,frases,NULL,Selector,classificacao,Selection,positiva,1737643796628,negativa;neutra;positiva
1737644254,bc2584302fffead698e1809107a60040,PennController,75,0,frases,NULL,PennController,76,_Trial_,End,1737643796629,NULL
1737644254,bc2584302fffead698e1809107a60040,PennController,76,0,frases,NULL,PennController,77,_Trial_,Start,1737643796629,NULL
1737644254,bc2584302fffead698e1809107a60040,PennController,76,0,frases,NULL,Selector,classificacao,Selection,positiva,1737643799058,negativa;neutra;positiva
1737644254,bc2584302fffead698e1809107a60040,PennController,76,0,frases,NULL,PennController,77,_Trial_,End,1737643799058,NULL
1737644254,bc2584302fffead698e1809107a60040,PennController,77,0,frases,NULL,PennController,78,_Trial_,Start,1737643799059,NULL
1737644254,bc2584302fffead698e1809107a60040,PennController,77,0,frases,NULL,Selector,classificacao,Selection,neutra,1737643801331,negativa;neutra;positiva
1737644254,bc2584302fffead698e1809107a60040,PennController,77,0,frases,NULL,PennController,78,_Trial_,End,1737643801332,NULL
1737644254,bc2584302fffead698e1809107a60040,PennController,78,0,frases,NULL,PennController,79,_Trial_,Start,1737643801332,NULL
1737644254,bc2584302fffead698e1809107a60040,PennController,78,0,frases,NULL,Selector,classificacao,Selection,positiva,1737643805810,negativa;neutra;positiva
1737644254,bc2584302fffead698e1809107a60040,PennController,78,0,frases,NULL,PennController,79,_Trial_,End,1737643805810,NULL
1737644254,bc2584302fffead698e1809107a60040,PennController,79,0,frases,NULL,PennController,80,_Trial_,Start,1737643805811,NULL
1737644254,bc2584302fffead698e1809107a60040,PennController,79,0,frases,NULL,Selector,classificacao,Selection,positiva,1737643813578,negativa;neutra;positiva
1737644254,bc2584302fffead698e1809107a60040,PennController,79,0,frases,NULL,PennController,80,_Trial_,End,1737643813579,NULL
1737644254,bc2584302fffead698e1809107a60040,PennController,80,0,frases,NULL,PennController,81,_Trial_,Start,1737643813579,NULL
1737644254,bc2584302fffead698e1809107a60040,PennController,80,0,frases,NULL,Selector,classificacao,Selection,positiva,1737643819434,negativa;neutra;positiva
1737644254,bc2584302fffead698e1809107a60040,PennController,80,0,frases,NULL,PennController,81,_Trial_,End,1737643819435,NULL
1737644254,bc2584302fffead698e1809107a60040,PennController,81,0,frases,NULL,PennController,82,_Trial_,Start,1737643819436,NULL
1737644254,bc2584302fffead698e1809107a60040,PennController,81,0,frases,NULL,Selector,classificacao,Selection,positiva,1737643821707,negativa;neutra;positiva
1737644254,bc2584302fffead698e1809107a60040,PennController,81,0,frases,NULL,PennController,82,_Trial_,End,1737643821707,NULL
1737644254,bc2584302fffead698e1809107a60040,PennController,82,0,frases,NULL,PennController,83,_Trial_,Start,1737643821709,NULL
1737644254,bc2584302fffead698e1809107a60040,PennController,82,0,frases,NULL,Selector,classificacao,Selection,positiva,1737643824369,negativa;neutra;positiva
1737644254,bc2584302fffead698e1809107a60040,PennController,82,0,frases,NULL,PennController,83,_Trial_,End,1737643824370,NULL
1737644254,bc2584302fffead698e1809107a60040,PennController,83,0,frases,NULL,PennController,84,_Trial_,Start,1737643824371,NULL
1737644254,bc2584302fffead698e1809107a60040,PennController,83,0,frases,NULL,Selector,classificacao,Selection,positiva,1737643827426,negativa;neutra;positiva
1737644254,bc2584302fffead698e1809107a60040,PennController,83,0,frases,NULL,PennController,84,_Trial_,End,1737643827426,NULL
1737644254,bc2584302fffead698e1809107a60040,PennController,84,0,frases,NULL,PennController,85,_Trial_,Start,1737643827427,NULL
1737644254,bc2584302fffead698e1809107a60040,PennController,84,0,frases,NULL,Selector,classificacao,Selection,positiva,1737643829306,negativa;neutra;positiva
1737644254,bc2584302fffead698e1809107a60040,PennController,84,0,frases,NULL,PennController,85,_Trial_,End,1737643829306,NULL
1737644254,bc2584302fffead698e1809107a60040,PennController,85,0,frases,NULL,PennController,86,_Trial_,Start,1737643829308,NULL
1737644254,bc2584302fffead698e1809107a60040,PennController,85,0,frases,NULL,Selector,classificacao,Selection,positiva,1737643831626,negativa;neutra;positiva
1737644254,bc2584302fffead698e1809107a60040,PennController,85,0,frases,NULL,PennController,86,_Trial_,End,1737643831627,NULL
1737644254,bc2584302fffead698e1809107a60040,PennController,86,0,frases,NULL,PennController,87,_Trial_,Start,1737643831628,NULL
1737644254,bc2584302fffead698e1809107a60040,PennController,86,0,frases,NULL,Selector,classificacao,Selection,positiva,1737643833074,negativa;neutra;positiva
1737644254,bc2584302fffead698e1809107a60040,PennController,86,0,frases,NULL,PennController,87,_Trial_,End,1737643833075,NULL
1737644254,bc2584302fffead698e1809107a60040,PennController,87,0,frases,NULL,PennController,88,_Trial_,Start,1737643833075,NULL
1737644254,bc2584302fffead698e1809107a60040,PennController,87,0,frases,NULL,Selector,classificacao,Selection,neutra,1737643835539,negativa;neutra;positiva
1737644254,bc2584302fffead698e1809107a60040,PennController,87,0,frases,NULL,PennController,88,_Trial_,End,1737643835539,NULL
1737644254,bc2584302fffead698e1809107a60040,PennController,88,0,frases,NULL,PennController,89,_Trial_,Start,1737643835541,NULL
1737644254,bc2584302fffead698e1809107a60040,PennController,88,0,frases,NULL,Selector,classificacao,Selection,negativa,1737643992642,negativa;neutra;positiva
1737644254,bc2584302fffead698e1809107a60040,PennController,88,0,frases,NULL,PennController,89,_Trial_,End,1737643992643,NULL
1737644254,bc2584302fffead698e1809107a60040,PennController,89,0,frases,NULL,PennController,90,_Trial_,Start,1737643992643,NULL
1737644254,bc2584302fffead698e1809107a60040,PennController,89,0,frases,NULL,Selector,classificacao,Selection,neutra,1737643994650,negativa;neutra;positiva
1737644254,bc2584302fffead698e1809107a60040,PennController,89,0,frases,NULL,PennController,90,_Trial_,End,1737643994651,NULL
1737644254,bc2584302fffead698e1809107a60040,PennController,90,0,frases,NULL,PennController,91,_Trial_,Start,1737643994651,NULL
1737644254,bc2584302fffead698e1809107a60040,PennController,90,0,frases,NULL,Selector,classificacao,Selection,positiva,1737643999674,negativa;neutra;positiva
1737644254,bc2584302fffead698e1809107a60040,PennController,90,0,frases,NULL,PennController,91,_Trial_,End,1737643999675,NULL
1737644254,bc2584302fffead698e1809107a60040,PennController,91,0,frases,NULL,PennController,92,_Trial_,Start,1737643999675,NULL
1737644254,bc2584302fffead698e1809107a60040,PennController,91,0,frases,NULL,Selector,classificacao,Selection,positiva,1737644000849,negativa;neutra;positiva
1737644254,bc2584302fffead698e1809107a60040,PennController,91,0,frases,NULL,PennController,92,_Trial_,End,1737644000850,NULL
1737644254,bc2584302fffead698e1809107a60040,PennController,92,0,frases,NULL,PennController,93,_Trial_,Start,1737644000851,NULL
1737644254,bc2584302fffead698e1809107a60040,PennController,92,0,frases,NULL,Selector,classificacao,Selection,positiva,1737644004481,negativa;neutra;positiva
1737644254,bc2584302fffead698e1809107a60040,PennController,92,0,frases,NULL,PennController,93,_Trial_,End,1737644004482,NULL
1737644254,bc2584302fffead698e1809107a60040,PennController,93,0,frases,NULL,PennController,94,_Trial_,Start,1737644004483,NULL
1737644254,bc2584302fffead698e1809107a60040,PennController,93,0,frases,NULL,Selector,classificacao,Selection,neutra,1737644007058,negativa;neutra;positiva
1737644254,bc2584302fffead698e1809107a60040,PennController,93,0,frases,NULL,PennController,94,_Trial_,End,1737644007058,NULL
1737644254,bc2584302fffead698e1809107a60040,PennController,94,0,frases,NULL,PennController,95,_Trial_,Start,1737644007059,NULL
1737644254,bc2584302fffead698e1809107a60040,PennController,94,0,frases,NULL,Selector,classificacao,Selection,positiva,1737644008786,negativa;neutra;positiva
1737644254,bc2584302fffead698e1809107a60040,PennController,94,0,frases,NULL,PennController,95,_Trial_,End,1737644008787,NULL
1737644254,bc2584302fffead698e1809107a60040,PennController,95,0,frases,NULL,PennController,96,_Trial_,Start,1737644008787,NULL
1737644254,bc2584302fffead698e1809107a60040,PennController,95,0,frases,NULL,Selector,classificacao,Selection,neutra,1737644012738,negativa;neutra;positiva
1737644254,bc2584302fffead698e1809107a60040,PennController,95,0,frases,NULL,PennController,96,_Trial_,End,1737644012738,NULL
1737644254,bc2584302fffead698e1809107a60040,PennController,96,0,frases,NULL,PennController,97,_Trial_,Start,1737644012740,NULL
1737644254,bc2584302fffead698e1809107a60040,PennController,96,0,frases,NULL,Selector,classificacao,Selection,positiva,1737644017498,negativa;neutra;positiva
1737644254,bc2584302fffead698e1809107a60040,PennController,96,0,frases,NULL,PennController,97,_Trial_,End,1737644017498,NULL
1737644254,bc2584302fffead698e1809107a60040,PennController,97,0,frases,NULL,PennController,98,_Trial_,Start,1737644017499,NULL
1737644254,bc2584302fffead698e1809107a60040,PennController,97,0,frases,NULL,Selector,classificacao,Selection,negativa,1737644021498,negativa;neutra;positiva
1737644254,bc2584302fffead698e1809107a60040,PennController,97,0,frases,NULL,PennController,98,_Trial_,End,1737644021500,NULL
1737644254,bc2584302fffead698e1809107a60040,PennController,98,0,frases,NULL,PennController,99,_Trial_,Start,1737644021500,NULL
1737644254,bc2584302fffead698e1809107a60040,PennController,98,0,frases,NULL,Selector,classificacao,Selection,negativa,1737644025001,negativa;neutra;positiva
1737644254,bc2584302fffead698e1809107a60040,PennController,98,0,frases,NULL,PennController,99,_Trial_,End,1737644025002,NULL
1737644254,bc2584302fffead698e1809107a60040,PennController,99,0,frases,NULL,PennController,100,_Trial_,Start,1737644025003,NULL
1737644254,bc2584302fffead698e1809107a60040,PennController,99,0,frases,NULL,Selector,classificacao,Selection,negativa,1737644027587,negativa;neutra;positiva
1737644254,bc2584302fffead698e1809107a60040,PennController,99,0,frases,NULL,PennController,100,_Trial_,End,1737644027587,NULL
1737644254,bc2584302fffead698e1809107a60040,PennController,100,0,frases,NULL,PennController,101,_Trial_,Start,1737644027588,NULL
1737644254,bc2584302fffead698e1809107a60040,PennController,100,0,frases,NULL,Selector,classificacao,Selection,neutra,1737644031577,negativa;neutra;positiva
1737644254,bc2584302fffead698e1809107a60040,PennController,100,0,frases,NULL,PennController,101,_Trial_,End,1737644031578,NULL
1737644254,bc2584302fffead698e1809107a60040,PennController,101,0,frases,NULL,PennController,102,_Trial_,Start,1737644031579,NULL
1737644254,bc2584302fffead698e1809107a60040,PennController,101,0,frases,NULL,Selector,classificacao,Selection,negativa,1737644035785,negativa;neutra;positiva
1737644254,bc2584302fffead698e1809107a60040,PennController,101,0,frases,NULL,PennController,102,_Trial_,End,1737644035787,NULL
1737644254,bc2584302fffead698e1809107a60040,PennController,102,0,frases,NULL,PennController,103,_Trial_,Start,1737644035788,NULL
1737644254,bc2584302fffead698e1809107a60040,PennController,102,0,frases,NULL,Selector,classificacao,Selection,neutra,1737644039866,negativa;neutra;positiva
1737644254,bc2584302fffead698e1809107a60040,PennController,102,0,frases,NULL,PennController,103,_Trial_,End,1737644039866,NULL
1737644254,bc2584302fffead698e1809107a60040,PennController,103,0,frases,NULL,PennController,104,_Trial_,Start,1737644039867,NULL
1737644254,bc2584302fffead698e1809107a60040,PennController,103,0,frases,NULL,Selector,classificacao,Selection,positiva,1737644043737,negativa;neutra;positiva
1737644254,bc2584302fffead698e1809107a60040,PennController,103,0,frases,NULL,PennController,104,_Trial_,End,1737644043738,NULL
1737644254,bc2584302fffead698e1809107a60040,PennController,104,0,frases,NULL,PennController,105,_Trial_,Start,1737644043739,NULL
1737644254,bc2584302fffead698e1809107a60040,PennController,104,0,frases,NULL,Selector,classificacao,Selection,negativa,1737644046322,negativa;neutra;positiva
1737644254,bc2584302fffead698e1809107a60040,PennController,104,0,frases,NULL,PennController,105,_Trial_,End,1737644046323,NULL
1737644254,bc2584302fffead698e1809107a60040,PennController,105,0,frases,NULL,PennController,106,_Trial_,Start,1737644046323,NULL
1737644254,bc2584302fffead698e1809107a60040,PennController,105,0,frases,NULL,Selector,classificacao,Selection,positiva,1737644055370,negativa;neutra;positiva
1737644254,bc2584302fffead698e1809107a60040,PennController,105,0,frases,NULL,PennController,106,_Trial_,End,1737644055371,NULL
1737644254,bc2584302fffead698e1809107a60040,PennController,106,0,frases,NULL,PennController,107,_Trial_,Start,1737644055371,NULL
1737644254,bc2584302fffead698e1809107a60040,PennController,106,0,frases,NULL,Selector,classificacao,Selection,negativa,1737644060161,negativa;neutra;positiva
1737644254,bc2584302fffead698e1809107a60040,PennController,106,0,frases,NULL,PennController,107,_Trial_,End,1737644060162,NULL
1737644254,bc2584302fffead698e1809107a60040,PennController,107,0,frases,NULL,PennController,108,_Trial_,Start,1737644060163,NULL
1737644254,bc2584302fffead698e1809107a60040,PennController,107,0,frases,NULL,Selector,classificacao,Selection,neutra,1737644064739,negativa;neutra;positiva
1737644254,bc2584302fffead698e1809107a60040,PennController,107,0,frases,NULL,PennController,108,_Trial_,End,1737644064739,NULL
1737644254,bc2584302fffead698e1809107a60040,PennController,108,0,frases,NULL,PennController,109,_Trial_,Start,1737644064740,NULL
1737644254,bc2584302fffead698e1809107a60040,PennController,108,0,frases,NULL,Selector,classificacao,Selection,negativa,1737644070722,negativa;neutra;positiva
1737644254,bc2584302fffead698e1809107a60040,PennController,108,0,frases,NULL,PennController,109,_Trial_,End,1737644070722,NULL
1737644254,bc2584302fffead698e1809107a60040,PennController,109,0,frases,NULL,PennController,110,_Trial_,Start,1737644070723,NULL
1737644254,bc2584302fffead698e1809107a60040,PennController,109,0,frases,NULL,Selector,classificacao,Selection,positiva,1737644072297,negativa;neutra;positiva
1737644254,bc2584302fffead698e1809107a60040,PennController,109,0,frases,NULL,PennController,110,_Trial_,End,1737644072298,NULL
1737644254,bc2584302fffead698e1809107a60040,PennController,110,0,frases,NULL,PennController,111,_Trial_,Start,1737644072299,NULL
1737644254,bc2584302fffead698e1809107a60040,PennController,110,0,frases,NULL,Selector,classificacao,Selection,negativa,1737644074874,negativa;neutra;positiva
1737644254,bc2584302fffead698e1809107a60040,PennController,110,0,frases,NULL,PennController,111,_Trial_,End,1737644074875,NULL
1737644254,bc2584302fffead698e1809107a60040,PennController,111,0,frases,NULL,PennController,112,_Trial_,Start,1737644074875,NULL
1737644254,bc2584302fffead698e1809107a60040,PennController,111,0,frases,NULL,Selector,classificacao,Selection,negativa,1737644078802,negativa;neutra;positiva
1737644254,bc2584302fffead698e1809107a60040,PennController,111,0,frases,NULL,PennController,112,_Trial_,End,1737644078803,NULL
1737644254,bc2584302fffead698e1809107a60040,PennController,112,0,frases,NULL,PennController,113,_Trial_,Start,1737644078803,NULL
1737644254,bc2584302fffead698e1809107a60040,PennController,112,0,frases,NULL,Selector,classificacao,Selection,neutra,1737644081339,negativa;neutra;positiva
1737644254,bc2584302fffead698e1809107a60040,PennController,112,0,frases,NULL,PennController,113,_Trial_,End,1737644081339,NULL
1737644254,bc2584302fffead698e1809107a60040,PennController,113,0,frases,NULL,PennController,114,_Trial_,Start,1737644081340,NULL
1737644254,bc2584302fffead698e1809107a60040,PennController,113,0,frases,NULL,Selector,classificacao,Selection,positiva,1737644085267,negativa;neutra;positiva
1737644254,bc2584302fffead698e1809107a60040,PennController,113,0,frases,NULL,PennController,114,_Trial_,End,1737644085267,NULL
1737644254,bc2584302fffead698e1809107a60040,PennController,114,0,frases,NULL,PennController,115,_Trial_,Start,1737644085268,NULL
1737644254,bc2584302fffead698e1809107a60040,PennController,114,0,frases,NULL,Selector,classificacao,Selection,neutra,1737644091130,negativa;neutra;positiva
1737644254,bc2584302fffead698e1809107a60040,PennController,114,0,frases,NULL,PennController,115,_Trial_,End,1737644091130,NULL
1737644254,bc2584302fffead698e1809107a60040,PennController,115,0,frases,NULL,PennController,116,_Trial_,Start,1737644091132,NULL
1737644254,bc2584302fffead698e1809107a60040,PennController,115,0,frases,NULL,Selector,classificacao,Selection,positiva,1737644098057,negativa;neutra;positiva
1737644254,bc2584302fffead698e1809107a60040,PennController,115,0,frases,NULL,PennController,116,_Trial_,End,1737644098058,NULL
1737644254,bc2584302fffead698e1809107a60040,PennController,116,0,frases,NULL,PennController,117,_Trial_,Start,1737644098058,NULL
1737644254,bc2584302fffead698e1809107a60040,PennController,116,0,frases,NULL,Selector,classificacao,Selection,negativa,1737644103371,negativa;neutra;positiva
1737644254,bc2584302fffead698e1809107a60040,PennController,116,0,frases,NULL,PennController,117,_Trial_,End,1737644103371,NULL
1737644254,bc2584302fffead698e1809107a60040,PennController,117,0,frases,NULL,PennController,118,_Trial_,Start,1737644103372,NULL
1737644254,bc2584302fffead698e1809107a60040,PennController,117,0,frases,NULL,Selector,classificacao,Selection,neutra,1737644110539,negativa;neutra;positiva
1737644254,bc2584302fffead698e1809107a60040,PennController,117,0,frases,NULL,PennController,118,_Trial_,End,1737644110539,NULL
1737644254,bc2584302fffead698e1809107a60040,PennController,118,0,frases,NULL,PennController,119,_Trial_,Start,1737644110540,NULL
1737644254,bc2584302fffead698e1809107a60040,PennController,118,0,frases,NULL,Selector,classificacao,Selection,negativa,1737644112553,negativa;neutra;positiva
1737644254,bc2584302fffead698e1809107a60040,PennController,118,0,frases,NULL,PennController,119,_Trial_,End,1737644112554,NULL
1737644254,bc2584302fffead698e1809107a60040,PennController,119,0,frases,NULL,PennController,120,_Trial_,Start,1737644112554,NULL
1737644254,bc2584302fffead698e1809107a60040,PennController,119,0,frases,NULL,Selector,classificacao,Selection,neutra,1737644115289,negativa;neutra;positiva
1737644254,bc2584302fffead698e1809107a60040,PennController,119,0,frases,NULL,PennController,120,_Trial_,End,1737644115290,NULL
1737644254,bc2584302fffead698e1809107a60040,PennController,120,0,frases,NULL,PennController,121,_Trial_,Start,1737644115291,NULL
1737644254,bc2584302fffead698e1809107a60040,PennController,120,0,frases,NULL,Selector,classificacao,Selection,positiva,1737644118938,negativa;neutra;positiva
1737644254,bc2584302fffead698e1809107a60040,PennController,120,0,frases,NULL,PennController,121,_Trial_,End,1737644118938,NULL
1737644254,bc2584302fffead698e1809107a60040,PennController,121,0,frases,NULL,PennController,122,_Trial_,Start,1737644118940,NULL
1737644254,bc2584302fffead698e1809107a60040,PennController,121,0,frases,NULL,Selector,classificacao,Selection,negativa,1737644121920,negativa;neutra;positiva
1737644254,bc2584302fffead698e1809107a60040,PennController,121,0,frases,NULL,PennController,122,_Trial_,End,1737644121920,NULL
1737644254,bc2584302fffead698e1809107a60040,PennController,122,0,frases,NULL,PennController,123,_Trial_,Start,1737644121922,NULL
1737644254,bc2584302fffead698e1809107a60040,PennController,122,0,frases,NULL,Selector,classificacao,Selection,neutra,1737644124921,negativa;neutra;positiva
1737644254,bc2584302fffead698e1809107a60040,PennController,122,0,frases,NULL,PennController,123,_Trial_,End,1737644124922,NULL
1737644254,bc2584302fffead698e1809107a60040,PennController,123,0,frases,NULL,PennController,124,_Trial_,Start,1737644124922,NULL
1737644254,bc2584302fffead698e1809107a60040,PennController,123,0,frases,NULL,Selector,classificacao,Selection,negativa,1737644129236,negativa;neutra;positiva
1737644254,bc2584302fffead698e1809107a60040,PennController,123,0,frases,NULL,PennController,124,_Trial_,End,1737644129237,NULL
1737644254,bc2584302fffead698e1809107a60040,PennController,124,0,frases,NULL,PennController,125,_Trial_,Start,1737644129238,NULL
1737644254,bc2584302fffead698e1809107a60040,PennController,124,0,frases,NULL,Selector,classificacao,Selection,negativa,1737644133810,negativa;neutra;positiva
1737644254,bc2584302fffead698e1809107a60040,PennController,124,0,frases,NULL,PennController,125,_Trial_,End,1737644133811,NULL
1737644254,bc2584302fffead698e1809107a60040,PennController,125,0,frases,NULL,PennController,126,_Trial_,Start,1737644133811,NULL
1737644254,bc2584302fffead698e1809107a60040,PennController,125,0,frases,NULL,Selector,classificacao,Selection,negativa,1737644136273,negativa;neutra;positiva
1737644254,bc2584302fffead698e1809107a60040,PennController,125,0,frases,NULL,PennController,126,_Trial_,End,1737644136274,NULL
1737644254,bc2584302fffead698e1809107a60040,PennController,126,0,frases,NULL,PennController,127,_Trial_,Start,1737644136275,NULL
1737644254,bc2584302fffead698e1809107a60040,PennController,126,0,frases,NULL,Selector,classificacao,Selection,neutra,1737644140058,negativa;neutra;positiva
1737644254,bc2584302fffead698e1809107a60040,PennController,126,0,frases,NULL,PennController,127,_Trial_,End,1737644140059,NULL
1737644254,bc2584302fffead698e1809107a60040,PennController,127,0,frases,NULL,PennController,128,_Trial_,Start,1737644140059,NULL
1737644254,bc2584302fffead698e1809107a60040,PennController,127,0,frases,NULL,Selector,classificacao,Selection,neutra,1737644142088,negativa;neutra;positiva
1737644254,bc2584302fffead698e1809107a60040,PennController,127,0,frases,NULL,PennController,128,_Trial_,End,1737644142089,NULL
1737644254,bc2584302fffead698e1809107a60040,PennController,128,0,frases,NULL,PennController,129,_Trial_,Start,1737644142089,NULL
1737644254,bc2584302fffead698e1809107a60040,PennController,128,0,frases,NULL,Selector,classificacao,Selection,positiva,1737644144769,negativa;neutra;positiva
1737644254,bc2584302fffead698e1809107a60040,PennController,128,0,frases,NULL,PennController,129,_Trial_,End,1737644144769,NULL
1737644254,bc2584302fffead698e1809107a60040,PennController,129,0,frases,NULL,PennController,130,_Trial_,Start,1737644144770,NULL
1737644254,bc2584302fffead698e1809107a60040,PennController,129,0,frases,NULL,Selector,classificacao,Selection,neutra,1737644148309,negativa;neutra;positiva
1737644254,bc2584302fffead698e1809107a60040,PennController,129,0,frases,NULL,PennController,130,_Trial_,End,1737644148309,NULL
1737644254,bc2584302fffead698e1809107a60040,PennController,130,0,frases,NULL,PennController,131,_Trial_,Start,1737644148310,NULL
1737644254,bc2584302fffead698e1809107a60040,PennController,130,0,frases,NULL,Selector,classificacao,Selection,negativa,1737644150482,negativa;neutra;positiva
1737644254,bc2584302fffead698e1809107a60040,PennController,130,0,frases,NULL,PennController,131,_Trial_,End,1737644150483,NULL
1737644254,bc2584302fffead698e1809107a60040,PennController,131,0,frases,NULL,PennController,132,_Trial_,Start,1737644150483,NULL
1737644254,bc2584302fffead698e1809107a60040,PennController,131,0,frases,NULL,Selector,classificacao,Selection,positiva,1737644155466,negativa;neutra;positiva
1737644254,bc2584302fffead698e1809107a60040,PennController,131,0,frases,NULL,PennController,132,_Trial_,End,1737644155466,NULL
1737644254,bc2584302fffead698e1809107a60040,PennController,132,0,frases,NULL,PennController,133,_Trial_,Start,1737644155467,NULL
1737644254,bc2584302fffead698e1809107a60040,PennController,132,0,frases,NULL,Selector,classificacao,Selection,positiva,1737644162201,negativa;neutra;positiva
1737644254,bc2584302fffead698e1809107a60040,PennController,132,0,frases,NULL,PennController,133,_Trial_,End,1737644162202,NULL
1737644254,bc2584302fffead698e1809107a60040,PennController,133,0,frases,NULL,PennController,134,_Trial_,Start,1737644162203,NULL
1737644254,bc2584302fffead698e1809107a60040,PennController,133,0,frases,NULL,Selector,classificacao,Selection,negativa,1737644166042,negativa;neutra;positiva
1737644254,bc2584302fffead698e1809107a60040,PennController,133,0,frases,NULL,PennController,134,_Trial_,End,1737644166042,NULL
1737644254,bc2584302fffead698e1809107a60040,PennController,134,0,frases,NULL,PennController,135,_Trial_,Start,1737644166043,NULL
1737644254,bc2584302fffead698e1809107a60040,PennController,134,0,frases,NULL,Selector,classificacao,Selection,neutra,1737644169811,negativa;neutra;positiva
1737644254,bc2584302fffead698e1809107a60040,PennController,134,0,frases,NULL,PennController,135,_Trial_,End,1737644169812,NULL
1737644254,bc2584302fffead698e1809107a60040,PennController,135,0,frases,NULL,PennController,136,_Trial_,Start,1737644169812,NULL
1737644254,bc2584302fffead698e1809107a60040,PennController,135,0,frases,NULL,Selector,classificacao,Selection,negativa,1737644172849,negativa;neutra;positiva
1737644254,bc2584302fffead698e1809107a60040,PennController,135,0,frases,NULL,PennController,136,_Trial_,End,1737644172850,NULL
1737644254,bc2584302fffead698e1809107a60040,PennController,136,0,frases,NULL,PennController,137,_Trial_,Start,1737644172851,NULL
1737644254,bc2584302fffead698e1809107a60040,PennController,136,0,frases,NULL,Selector,classificacao,Selection,negativa,1737644196665,negativa;neutra;positiva
1737644254,bc2584302fffead698e1809107a60040,PennController,136,0,frases,NULL,PennController,137,_Trial_,End,1737644196666,NULL
1737644254,bc2584302fffead698e1809107a60040,PennController,137,0,frases,NULL,PennController,138,_Trial_,Start,1737644196667,NULL
1737644254,bc2584302fffead698e1809107a60040,PennController,137,0,frases,NULL,Selector,classificacao,Selection,neutra,1737644199561,negativa;neutra;positiva
1737644254,bc2584302fffead698e1809107a60040,PennController,137,0,frases,NULL,PennController,138,_Trial_,End,1737644199562,NULL
1737644254,bc2584302fffead698e1809107a60040,PennController,138,0,frases,NULL,PennController,139,_Trial_,Start,1737644199563,NULL
1737644254,bc2584302fffead698e1809107a60040,PennController,138,0,frases,NULL,Selector,classificacao,Selection,neutra,1737644203457,negativa;neutra;positiva
1737644254,bc2584302fffead698e1809107a60040,PennController,138,0,frases,NULL,PennController,139,_Trial_,End,1737644203458,NULL
1737644254,bc2584302fffead698e1809107a60040,PennController,139,0,frases,NULL,PennController,140,_Trial_,Start,1737644203458,NULL
1737644254,bc2584302fffead698e1809107a60040,PennController,139,0,frases,NULL,Selector,classificacao,Selection,neutra,1737644205665,negativa;neutra;positiva
1737644254,bc2584302fffead698e1809107a60040,PennController,139,0,frases,NULL,PennController,140,_Trial_,End,1737644205666,NULL
1737644254,bc2584302fffead698e1809107a60040,PennController,140,0,frases,NULL,PennController,141,_Trial_,Start,1737644205666,NULL
1737644254,bc2584302fffead698e1809107a60040,PennController,140,0,frases,NULL,Selector,classificacao,Selection,positiva,1737644211594,negativa;neutra;positiva
1737644254,bc2584302fffead698e1809107a60040,PennController,140,0,frases,NULL,PennController,141,_Trial_,End,1737644211594,NULL
1737644254,bc2584302fffead698e1809107a60040,PennController,141,0,frases,NULL,PennController,142,_Trial_,Start,1737644211596,NULL
1737644254,bc2584302fffead698e1809107a60040,PennController,141,0,frases,NULL,Selector,classificacao,Selection,neutra,1737644215762,negativa;neutra;positiva
1737644254,bc2584302fffead698e1809107a60040,PennController,141,0,frases,NULL,PennController,142,_Trial_,End,1737644215762,NULL
1737644254,bc2584302fffead698e1809107a60040,PennController,142,0,frases,NULL,PennController,143,_Trial_,Start,1737644215763,NULL
1737644254,bc2584302fffead698e1809107a60040,PennController,142,0,frases,NULL,Selector,classificacao,Selection,negativa,1737644219305,negativa;neutra;positiva
1737644254,bc2584302fffead698e1809107a60040,PennController,142,0,frases,NULL,PennController,143,_Trial_,End,1737644219306,NULL
1737644254,bc2584302fffead698e1809107a60040,PennController,143,0,frases,NULL,PennController,144,_Trial_,Start,1737644219306,NULL
1737644254,bc2584302fffead698e1809107a60040,PennController,143,0,frases,NULL,Selector,classificacao,Selection,neutra,1737644221473,negativa;neutra;positiva
1737644254,bc2584302fffead698e1809107a60040,PennController,143,0,frases,NULL,PennController,144,_Trial_,End,1737644221474,NULL
1737644254,bc2584302fffead698e1809107a60040,PennController,144,0,frases,NULL,PennController,145,_Trial_,Start,1737644221474,NULL
1737644254,bc2584302fffead698e1809107a60040,PennController,144,0,frases,NULL,Selector,classificacao,Selection,negativa,1737644225185,negativa;neutra;positiva
1737644254,bc2584302fffead698e1809107a60040,PennController,144,0,frases,NULL,PennController,145,_Trial_,End,1737644225186,NULL
1737644254,bc2584302fffead698e1809107a60040,PennController,145,0,frases,NULL,PennController,146,_Trial_,Start,1737644225186,NULL
1737644254,bc2584302fffead698e1809107a60040,PennController,145,0,frases,NULL,Selector,classificacao,Selection,positiva,1737644228409,negativa;neutra;positiva
1737644254,bc2584302fffead698e1809107a60040,PennController,145,0,frases,NULL,PennController,146,_Trial_,End,1737644228409,NULL
1737644254,bc2584302fffead698e1809107a60040,PennController,146,0,frases,NULL,PennController,147,_Trial_,Start,1737644228410,NULL
1737644254,bc2584302fffead698e1809107a60040,PennController,146,0,frases,NULL,Selector,classificacao,Selection,neutra,1737644234073,negativa;neutra;positiva
1737644254,bc2584302fffead698e1809107a60040,PennController,146,0,frases,NULL,PennController,147,_Trial_,End,1737644234074,NULL
1737644254,bc2584302fffead698e1809107a60040,PennController,147,0,frases,NULL,PennController,148,_Trial_,Start,1737644234074,NULL
1737644254,bc2584302fffead698e1809107a60040,PennController,147,0,frases,NULL,Selector,classificacao,Selection,positiva,1737644235969,negativa;neutra;positiva
1737644254,bc2584302fffead698e1809107a60040,PennController,147,0,frases,NULL,PennController,148,_Trial_,End,1737644235969,NULL
1737644254,bc2584302fffead698e1809107a60040,PennController,148,0,frases,NULL,PennController,149,_Trial_,Start,1737644235970,NULL
1737644254,bc2584302fffead698e1809107a60040,PennController,148,0,frases,NULL,Selector,classificacao,Selection,positiva,1737644238105,negativa;neutra;positiva
1737644254,bc2584302fffead698e1809107a60040,PennController,148,0,frases,NULL,PennController,149,_Trial_,End,1737644238106,NULL
1737644254,bc2584302fffead698e1809107a60040,PennController,149,0,frases,NULL,PennController,150,_Trial_,Start,1737644238106,NULL
1737644254,bc2584302fffead698e1809107a60040,PennController,149,0,frases,NULL,Selector,classificacao,Selection,negativa,1737644241329,negativa;neutra;positiva
1737644254,bc2584302fffead698e1809107a60040,PennController,149,0,frases,NULL,PennController,150,_Trial_,End,1737644241329,NULL
1737644254,bc2584302fffead698e1809107a60040,PennController,150,0,frases,NULL,PennController,151,_Trial_,Start,1737644241330,NULL
1737644254,bc2584302fffead698e1809107a60040,PennController,150,0,frases,NULL,Selector,classificacao,Selection,positiva,1737644244730,negativa;neutra;positiva
1737644254,bc2584302fffead698e1809107a60040,PennController,150,0,frases,NULL,PennController,151,_Trial_,End,1737644244730,NULL
1737644254,bc2584302fffead698e1809107a60040,PennController,151,0,frases,NULL,PennController,152,_Trial_,Start,1737644244732,NULL
1737644254,bc2584302fffead698e1809107a60040,PennController,151,0,frases,NULL,Selector,classificacao,Selection,positiva,1737644246424,negativa;neutra;positiva
1737644254,bc2584302fffead698e1809107a60040,PennController,151,0,frases,NULL,PennController,152,_Trial_,End,1737644246425,NULL
1737644254,bc2584302fffead698e1809107a60040,PennController,152,0,frases,NULL,PennController,153,_Trial_,Start,1737644246427,NULL
1737644254,bc2584302fffead698e1809107a60040,PennController,152,0,frases,NULL,Selector,classificacao,Selection,negativa,1737644250713,negativa;neutra;positiva
1737644254,bc2584302fffead698e1809107a60040,PennController,152,0,frases,NULL,PennController,153,_Trial_,End,1737644250714,NULL
1737644254,bc2584302fffead698e1809107a60040,PennController,153,0,frases,NULL,PennController,154,_Trial_,Start,1737644250714,NULL
1737644254,bc2584302fffead698e1809107a60040,PennController,153,0,frases,NULL,Selector,classificacao,Selection,positiva,1737644252658,negativa;neutra;positiva
1737644254,bc2584302fffead698e1809107a60040,PennController,153,0,frases,NULL,PennController,154,_Trial_,End,1737644252659,NULL
1737644254,bc2584302fffead698e1809107a60040,PennController,154,0,agradecimento,NULL,PennController,4,_Trial_,Start,1737644252659,NULL
1737644254,bc2584302fffead698e1809107a60040,PennController,154,0,agradecimento,NULL,PennController,4,_Trial_,End,1737644253529,NULL
#
# Results on Fri, 24 Jan 2025 18:02:01 GMT
# USER AGENT: Mozilla/5.0 (Windows NT 10.0; Win64; x64) AppleWebKit/537.36 (KHTML, like Gecko) Chrome/132.0.0.0 Safari/537.36
# Design number was non-random = 1
#
# Columns below this comment are as follows:
# 1. Results reception time.
# 2. MD5 hash of participant's IP address.
# 3. Controller name.
# 4. Order number of item.
# 5. Inner element number.
# 6. Label.
# 7. Latin Square Group.
# 8. PennElementType.
# 9. PennElementName.
# 10. Parameter.
# 11. Value.
# 12. EventTime.
# 13. Comments.
1737741721,bdf066947686ab2cd01768f202816430,PennController,0,0,TCLE,NULL,PennController,0,_Trial_,Start,1737740934122,NULL
1737741721,bdf066947686ab2cd01768f202816430,PennController,0,0,TCLE,NULL,PennController,0,_Trial_,End,1737740938942,NULL
1737741721,bdf066947686ab2cd01768f202816430,PennController,3,0,instrucoes,NULL,PennController,3,_Trial_,Start,1737740938944,NULL
1737741721,bdf066947686ab2cd01768f202816430,PennController,3,0,instrucoes,NULL,PennController,3,_Trial_,End,1737740940425,NULL
1737741721,bdf066947686ab2cd01768f202816430,PennController,1,0,genero,NULL,PennController,1,_Trial_,Start,1737740940426,NULL
1737741721,bdf066947686ab2cd01768f202816430,PennController,1,0,genero,NULL,DropDown,selecionaGenero,Selected,Feminino,1737740942659,1
1737741721,bdf066947686ab2cd01768f202816430,PennController,1,0,genero,NULL,PennController,1,_Trial_,End,1737740943626,NULL
1737741721,bdf066947686ab2cd01768f202816430,PennController,4,0,frases,NULL,PennController,5,_Trial_,Start,1737740943627,NULL
1737741721,bdf066947686ab2cd01768f202816430,PennController,4,0,frases,NULL,Selector,classificacao,Selection,neutra,1737740947420,negativa;neutra;positiva
1737741721,bdf066947686ab2cd01768f202816430,PennController,4,0,frases,NULL,PennController,5,_Trial_,End,1737740947421,NULL
1737741721,bdf066947686ab2cd01768f202816430,PennController,5,0,frases,NULL,PennController,6,_Trial_,Start,1737740947423,NULL
1737741721,bdf066947686ab2cd01768f202816430,PennController,5,0,frases,NULL,Selector,classificacao,Selection,negativa,1737740952638,negativa;neutra;positiva
1737741721,bdf066947686ab2cd01768f202816430,PennController,5,0,frases,NULL,PennController,6,_Trial_,End,1737740952639,NULL
1737741721,bdf066947686ab2cd01768f202816430,PennController,6,0,frases,NULL,PennController,7,_Trial_,Start,1737740952640,NULL
1737741721,bdf066947686ab2cd01768f202816430,PennController,6,0,frases,NULL,Selector,classificacao,Selection,neutra,1737740954554,negativa;neutra;positiva
1737741721,bdf066947686ab2cd01768f202816430,PennController,6,0,frases,NULL,PennController,7,_Trial_,End,1737740954554,NULL
1737741721,bdf066947686ab2cd01768f202816430,PennController,7,0,frases,NULL,PennController,8,_Trial_,Start,1737740954555,NULL
1737741721,bdf066947686ab2cd01768f202816430,PennController,7,0,frases,NULL,Selector,classificacao,Selection,neutra,1737740961260,negativa;neutra;positiva
1737741721,bdf066947686ab2cd01768f202816430,PennController,7,0,frases,NULL,PennController,8,_Trial_,End,1737740961261,NULL
1737741721,bdf066947686ab2cd01768f202816430,PennController,8,0,frases,NULL,PennController,9,_Trial_,Start,1737740961263,NULL
1737741721,bdf066947686ab2cd01768f202816430,PennController,8,0,frases,NULL,Selector,classificacao,Selection,neutra,1737740971699,negativa;neutra;positiva
1737741721,bdf066947686ab2cd01768f202816430,PennController,8,0,frases,NULL,PennController,9,_Trial_,End,1737740971701,NULL
1737741721,bdf066947686ab2cd01768f202816430,PennController,9,0,frases,NULL,PennController,10,_Trial_,Start,1737740971703,NULL
1737741721,bdf066947686ab2cd01768f202816430,PennController,9,0,frases,NULL,Selector,classificacao,Selection,neutra,1737740981612,negativa;neutra;positiva
1737741721,bdf066947686ab2cd01768f202816430,PennController,9,0,frases,NULL,PennController,10,_Trial_,End,1737740981613,NULL
1737741721,bdf066947686ab2cd01768f202816430,PennController,10,0,frases,NULL,PennController,11,_Trial_,Start,1737740981614,NULL
1737741721,bdf066947686ab2cd01768f202816430,PennController,10,0,frases,NULL,Selector,classificacao,Selection,positiva,1737740987566,negativa;neutra;positiva
1737741721,bdf066947686ab2cd01768f202816430,PennController,10,0,frases,NULL,PennController,11,_Trial_,End,1737740987567,NULL
1737741721,bdf066947686ab2cd01768f202816430,PennController,11,0,frases,NULL,PennController,12,_Trial_,Start,1737740987567,NULL
1737741721,bdf066947686ab2cd01768f202816430,PennController,11,0,frases,NULL,Selector,classificacao,Selection,positiva,1737740992378,negativa;neutra;positiva
1737741721,bdf066947686ab2cd01768f202816430,PennController,11,0,frases,NULL,PennController,12,_Trial_,End,1737740992379,NULL
1737741721,bdf066947686ab2cd01768f202816430,PennController,12,0,frases,NULL,PennController,13,_Trial_,Start,1737740992379,NULL
1737741721,bdf066947686ab2cd01768f202816430,PennController,12,0,frases,NULL,Selector,classificacao,Selection,neutra,1737740997677,negativa;neutra;positiva
1737741721,bdf066947686ab2cd01768f202816430,PennController,12,0,frases,NULL,PennController,13,_Trial_,End,1737740997678,NULL
1737741721,bdf066947686ab2cd01768f202816430,PennController,13,0,frases,NULL,PennController,14,_Trial_,Start,1737740997679,NULL
1737741721,bdf066947686ab2cd01768f202816430,PennController,13,0,frases,NULL,Selector,classificacao,Selection,neutra,1737741000883,negativa;neutra;positiva
1737741721,bdf066947686ab2cd01768f202816430,PennController,13,0,frases,NULL,PennController,14,_Trial_,End,1737741000884,NULL
1737741721,bdf066947686ab2cd01768f202816430,PennController,14,0,frases,NULL,PennController,15,_Trial_,Start,1737741000885,NULL
1737741721,bdf066947686ab2cd01768f202816430,PennController,14,0,frases,NULL,Selector,classificacao,Selection,neutra,1737741005056,negativa;neutra;positiva
1737741721,bdf066947686ab2cd01768f202816430,PennController,14,0,frases,NULL,PennController,15,_Trial_,End,1737741005057,NULL
1737741721,bdf066947686ab2cd01768f202816430,PennController,15,0,frases,NULL,PennController,16,_Trial_,Start,1737741005058,NULL
1737741721,bdf066947686ab2cd01768f202816430,PennController,15,0,frases,NULL,Selector,classificacao,Selection,negativa,1737741023052,negativa;neutra;positiva
1737741721,bdf066947686ab2cd01768f202816430,PennController,15,0,frases,NULL,PennController,16,_Trial_,End,1737741023053,NULL
1737741721,bdf066947686ab2cd01768f202816430,PennController,16,0,frases,NULL,PennController,17,_Trial_,Start,1737741023054,NULL
1737741721,bdf066947686ab2cd01768f202816430,PennController,16,0,frases,NULL,Selector,classificacao,Selection,positiva,1737741026918,negativa;neutra;positiva
1737741721,bdf066947686ab2cd01768f202816430,PennController,16,0,frases,NULL,PennController,17,_Trial_,End,1737741026919,NULL
1737741721,bdf066947686ab2cd01768f202816430,PennController,17,0,frases,NULL,PennController,18,_Trial_,Start,1737741026920,NULL
1737741721,bdf066947686ab2cd01768f202816430,PennController,17,0,frases,NULL,Selector,classificacao,Selection,neutra,1737741035988,negativa;neutra;positiva
1737741721,bdf066947686ab2cd01768f202816430,PennController,17,0,frases,NULL,PennController,18,_Trial_,End,1737741035988,NULL
1737741721,bdf066947686ab2cd01768f202816430,PennController,18,0,frases,NULL,PennController,19,_Trial_,Start,1737741035989,NULL
1737741721,bdf066947686ab2cd01768f202816430,PennController,18,0,frases,NULL,Selector,classificacao,Selection,neutra,1737741041746,negativa;neutra;positiva
1737741721,bdf066947686ab2cd01768f202816430,PennController,18,0,frases,NULL,PennController,19,_Trial_,End,1737741041747,NULL
1737741721,bdf066947686ab2cd01768f202816430,PennController,19,0,frases,NULL,PennController,20,_Trial_,Start,1737741041747,NULL
1737741721,bdf066947686ab2cd01768f202816430,PennController,19,0,frases,NULL,Selector,classificacao,Selection,negativa,1737741050754,negativa;neutra;positiva
1737741721,bdf066947686ab2cd01768f202816430,PennController,19,0,frases,NULL,PennController,20,_Trial_,End,1737741050754,NULL
1737741721,bdf066947686ab2cd01768f202816430,PennController,20,0,frases,NULL,PennController,21,_Trial_,Start,1737741050755,NULL
1737741721,bdf066947686ab2cd01768f202816430,PennController,20,0,frases,NULL,Selector,classificacao,Selection,neutra,1737741054478,negativa;neutra;positiva
1737741721,bdf066947686ab2cd01768f202816430,PennController,20,0,frases,NULL,PennController,21,_Trial_,End,1737741054479,NULL
1737741721,bdf066947686ab2cd01768f202816430,PennController,21,0,frases,NULL,PennController,22,_Trial_,Start,1737741054480,NULL
1737741721,bdf066947686ab2cd01768f202816430,PennController,21,0,frases,NULL,Selector,classificacao,Selection,neutra,1737741060104,negativa;neutra;positiva
1737741721,bdf066947686ab2cd01768f202816430,PennController,21,0,frases,NULL,PennController,22,_Trial_,End,1737741060105,NULL
1737741721,bdf066947686ab2cd01768f202816430,PennController,22,0,frases,NULL,PennController,23,_Trial_,Start,1737741060106,NULL
1737741721,bdf066947686ab2cd01768f202816430,PennController,22,0,frases,NULL,Selector,classificacao,Selection,neutra,1737741062100,negativa;neutra;positiva
1737741721,bdf066947686ab2cd01768f202816430,PennController,22,0,frases,NULL,PennController,23,_Trial_,End,1737741062101,NULL
1737741721,bdf066947686ab2cd01768f202816430,PennController,23,0,frases,NULL,PennController,24,_Trial_,Start,1737741062101,NULL
1737741721,bdf066947686ab2cd01768f202816430,PennController,23,0,frases,NULL,Selector,classificacao,Selection,neutra,1737741063593,negativa;neutra;positiva
1737741721,bdf066947686ab2cd01768f202816430,PennController,23,0,frases,NULL,PennController,24,_Trial_,End,1737741063594,NULL
1737741721,bdf066947686ab2cd01768f202816430,PennController,24,0,frases,NULL,PennController,25,_Trial_,Start,1737741063595,NULL
1737741721,bdf066947686ab2cd01768f202816430,PennController,24,0,frases,NULL,Selector,classificacao,Selection,positiva,1737741069916,negativa;neutra;positiva
1737741721,bdf066947686ab2cd01768f202816430,PennController,24,0,frases,NULL,PennController,25,_Trial_,End,1737741069917,NULL
1737741721,bdf066947686ab2cd01768f202816430,PennController,25,0,frases,NULL,PennController,26,_Trial_,Start,1737741069918,NULL
1737741721,bdf066947686ab2cd01768f202816430,PennController,25,0,frases,NULL,Selector,classificacao,Selection,neutra,1737741071639,negativa;neutra;positiva
1737741721,bdf066947686ab2cd01768f202816430,PennController,25,0,frases,NULL,PennController,26,_Trial_,End,1737741071640,NULL
1737741721,bdf066947686ab2cd01768f202816430,PennController,26,0,frases,NULL,PennController,27,_Trial_,Start,1737741071641,NULL
1737741721,bdf066947686ab2cd01768f202816430,PennController,26,0,frases,NULL,Selector,classificacao,Selection,neutra,1737741079542,negativa;neutra;positiva
1737741721,bdf066947686ab2cd01768f202816430,PennController,26,0,frases,NULL,PennController,27,_Trial_,End,1737741079543,NULL
1737741721,bdf066947686ab2cd01768f202816430,PennController,27,0,frases,NULL,PennController,28,_Trial_,Start,1737741079544,NULL
1737741721,bdf066947686ab2cd01768f202816430,PennController,27,0,frases,NULL,Selector,classificacao,Selection,neutra,1737741086460,negativa;neutra;positiva
1737741721,bdf066947686ab2cd01768f202816430,PennController,27,0,frases,NULL,PennController,28,_Trial_,End,1737741086461,NULL
1737741721,bdf066947686ab2cd01768f202816430,PennController,28,0,frases,NULL,PennController,29,_Trial_,Start,1737741086462,NULL
1737741721,bdf066947686ab2cd01768f202816430,PennController,28,0,frases,NULL,Selector,classificacao,Selection,negativa,1737741094050,negativa;neutra;positiva
1737741721,bdf066947686ab2cd01768f202816430,PennController,28,0,frases,NULL,PennController,29,_Trial_,End,1737741094051,NULL
1737741721,bdf066947686ab2cd01768f202816430,PennController,29,0,frases,NULL,PennController,30,_Trial_,Start,1737741094052,NULL
1737741721,bdf066947686ab2cd01768f202816430,PennController,29,0,frases,NULL,Selector,classificacao,Selection,negativa,1737741099332,negativa;neutra;positiva
1737741721,bdf066947686ab2cd01768f202816430,PennController,29,0,frases,NULL,PennController,30,_Trial_,End,1737741099333,NULL
1737741721,bdf066947686ab2cd01768f202816430,PennController,30,0,frases,NULL,PennController,31,_Trial_,Start,1737741099333,NULL
1737741721,bdf066947686ab2cd01768f202816430,PennController,30,0,frases,NULL,Selector,classificacao,Selection,negativa,1737741104525,negativa;neutra;positiva
1737741721,bdf066947686ab2cd01768f202816430,PennController,30,0,frases,NULL,PennController,31,_Trial_,End,1737741104526,NULL
1737741721,bdf066947686ab2cd01768f202816430,PennController,31,0,frases,NULL,PennController,32,_Trial_,Start,1737741104527,NULL
1737741721,bdf066947686ab2cd01768f202816430,PennController,31,0,frases,NULL,Selector,classificacao,Selection,negativa,1737741106975,negativa;neutra;positiva
1737741721,bdf066947686ab2cd01768f202816430,PennController,31,0,frases,NULL,PennController,32,_Trial_,End,1737741106976,NULL
1737741721,bdf066947686ab2cd01768f202816430,PennController,32,0,frases,NULL,PennController,33,_Trial_,Start,1737741106977,NULL
1737741721,bdf066947686ab2cd01768f202816430,PennController,32,0,frases,NULL,Selector,classificacao,Selection,neutra,1737741109660,negativa;neutra;positiva
1737741721,bdf066947686ab2cd01768f202816430,PennController,32,0,frases,NULL,PennController,33,_Trial_,End,1737741109661,NULL
1737741721,bdf066947686ab2cd01768f202816430,PennController,33,0,frases,NULL,PennController,34,_Trial_,Start,1737741109661,NULL
1737741721,bdf066947686ab2cd01768f202816430,PennController,33,0,frases,NULL,Selector,classificacao,Selection,positiva,1737741113766,negativa;neutra;positiva
1737741721,bdf066947686ab2cd01768f202816430,PennController,33,0,frases,NULL,PennController,34,_Trial_,End,1737741113766,NULL
1737741721,bdf066947686ab2cd01768f202816430,PennController,34,0,frases,NULL,PennController,35,_Trial_,Start,1737741113767,NULL
1737741721,bdf066947686ab2cd01768f202816430,PennController,34,0,frases,NULL,Selector,classificacao,Selection,neutra,1737741117571,negativa;neutra;positiva
1737741721,bdf066947686ab2cd01768f202816430,PennController,34,0,frases,NULL,PennController,35,_Trial_,End,1737741117571,NULL
1737741721,bdf066947686ab2cd01768f202816430,PennController,35,0,frases,NULL,PennController,36,_Trial_,Start,1737741117572,NULL
1737741721,bdf066947686ab2cd01768f202816430,PennController,35,0,frases,NULL,Selector,classificacao,Selection,neutra,1737741120685,negativa;neutra;positiva
1737741721,bdf066947686ab2cd01768f202816430,PennController,35,0,frases,NULL,PennController,36,_Trial_,End,1737741120685,NULL
1737741721,bdf066947686ab2cd01768f202816430,PennController,36,0,frases,NULL,PennController,37,_Trial_,Start,1737741120686,NULL
1737741721,bdf066947686ab2cd01768f202816430,PennController,36,0,frases,NULL,Selector,classificacao,Selection,neutra,1737741124321,negativa;neutra;positiva
1737741721,bdf066947686ab2cd01768f202816430,PennController,36,0,frases,NULL,PennController,37,_Trial_,End,1737741124322,NULL
1737741721,bdf066947686ab2cd01768f202816430,PennController,37,0,frases,NULL,PennController,38,_Trial_,Start,1737741124323,NULL
1737741721,bdf066947686ab2cd01768f202816430,PennController,37,0,frases,NULL,Selector,classificacao,Selection,neutra,1737741126974,negativa;neutra;positiva
1737741721,bdf066947686ab2cd01768f202816430,PennController,37,0,frases,NULL,PennController,38,_Trial_,End,1737741126975,NULL
1737741721,bdf066947686ab2cd01768f202816430,PennController,38,0,frases,NULL,PennController,39,_Trial_,Start,1737741126976,NULL
1737741721,bdf066947686ab2cd01768f202816430,PennController,38,0,frases,NULL,Selector,classificacao,Selection,neutra,1737741131851,negativa;neutra;positiva
1737741721,bdf066947686ab2cd01768f202816430,PennController,38,0,frases,NULL,PennController,39,_Trial_,End,1737741131851,NULL
1737741721,bdf066947686ab2cd01768f202816430,PennController,39,0,frases,NULL,PennController,40,_Trial_,Start,1737741131852,NULL
1737741721,bdf066947686ab2cd01768f202816430,PennController,39,0,frases,NULL,Selector,classificacao,Selection,positiva,1737741138728,negativa;neutra;positiva
1737741721,bdf066947686ab2cd01768f202816430,PennController,39,0,frases,NULL,PennController,40,_Trial_,End,1737741138729,NULL
1737741721,bdf066947686ab2cd01768f202816430,PennController,40,0,frases,NULL,PennController,41,_Trial_,Start,1737741138730,NULL
1737741721,bdf066947686ab2cd01768f202816430,PennController,40,0,frases,NULL,Selector,classificacao,Selection,positiva,1737741145120,negativa;neutra;positiva
1737741721,bdf066947686ab2cd01768f202816430,PennController,40,0,frases,NULL,PennController,41,_Trial_,End,1737741145121,NULL
1737741721,bdf066947686ab2cd01768f202816430,PennController,41,0,frases,NULL,PennController,42,_Trial_,Start,1737741145121,NULL
1737741721,bdf066947686ab2cd01768f202816430,PennController,41,0,frases,NULL,Selector,classificacao,Selection,neutra,1737741148556,negativa;neutra;positiva
1737741721,bdf066947686ab2cd01768f202816430,PennController,41,0,frases,NULL,PennController,42,_Trial_,End,1737741148557,NULL
1737741721,bdf066947686ab2cd01768f202816430,PennController,42,0,frases,NULL,PennController,43,_Trial_,Start,1737741148557,NULL
1737741721,bdf066947686ab2cd01768f202816430,PennController,42,0,frases,NULL,Selector,classificacao,Selection,neutra,1737741154150,negativa;neutra;positiva
1737741721,bdf066947686ab2cd01768f202816430,PennController,42,0,frases,NULL,PennController,43,_Trial_,End,1737741154151,NULL
1737741721,bdf066947686ab2cd01768f202816430,PennController,43,0,frases,NULL,PennController,44,_Trial_,Start,1737741154152,NULL
1737741721,bdf066947686ab2cd01768f202816430,PennController,43,0,frases,NULL,Selector,classificacao,Selection,neutra,1737741158947,negativa;neutra;positiva
1737741721,bdf066947686ab2cd01768f202816430,PennController,43,0,frases,NULL,PennController,44,_Trial_,End,1737741158948,NULL
1737741721,bdf066947686ab2cd01768f202816430,PennController,44,0,frases,NULL,PennController,45,_Trial_,Start,1737741158949,NULL
1737741721,bdf066947686ab2cd01768f202816430,PennController,44,0,frases,NULL,Selector,classificacao,Selection,neutra,1737741161059,negativa;neutra;positiva
1737741721,bdf066947686ab2cd01768f202816430,PennController,44,0,frases,NULL,PennController,45,_Trial_,End,1737741161060,NULL
1737741721,bdf066947686ab2cd01768f202816430,PennController,45,0,frases,NULL,PennController,46,_Trial_,Start,1737741161061,NULL
1737741721,bdf066947686ab2cd01768f202816430,PennController,45,0,frases,NULL,Selector,classificacao,Selection,positiva,1737741165081,negativa;neutra;positiva
1737741721,bdf066947686ab2cd01768f202816430,PennController,45,0,frases,NULL,PennController,46,_Trial_,End,1737741165082,NULL
1737741721,bdf066947686ab2cd01768f202816430,PennController,46,0,frases,NULL,PennController,47,_Trial_,Start,1737741165083,NULL
1737741721,bdf066947686ab2cd01768f202816430,PennController,46,0,frases,NULL,Selector,classificacao,Selection,neutra,1737741167915,negativa;neutra;positiva
1737741721,bdf066947686ab2cd01768f202816430,PennController,46,0,frases,NULL,PennController,47,_Trial_,End,1737741167916,NULL
1737741721,bdf066947686ab2cd01768f202816430,PennController,47,0,frases,NULL,PennController,48,_Trial_,Start,1737741167917,NULL
1737741721,bdf066947686ab2cd01768f202816430,PennController,47,0,frases,NULL,Selector,classificacao,Selection,neutra,1737741172429,negativa;neutra;positiva
1737741721,bdf066947686ab2cd01768f202816430,PennController,47,0,frases,NULL,PennController,48,_Trial_,End,1737741172430,NULL
1737741721,bdf066947686ab2cd01768f202816430,PennController,48,0,frases,NULL,PennController,49,_Trial_,Start,1737741172431,NULL
1737741721,bdf066947686ab2cd01768f202816430,PennController,48,0,frases,NULL,Selector,classificacao,Selection,negativa,1737741181225,negativa;neutra;positiva
1737741721,bdf066947686ab2cd01768f202816430,PennController,48,0,frases,NULL,PennController,49,_Trial_,End,1737741181226,NULL
1737741721,bdf066947686ab2cd01768f202816430,PennController,49,0,frases,NULL,PennController,50,_Trial_,Start,1737741181227,NULL
1737741721,bdf066947686ab2cd01768f202816430,PennController,49,0,frases,NULL,Selector,classificacao,Selection,neutra,1737741188251,negativa;neutra;positiva
1737741721,bdf066947686ab2cd01768f202816430,PennController,49,0,frases,NULL,PennController,50,_Trial_,End,1737741188252,NULL
1737741721,bdf066947686ab2cd01768f202816430,PennController,50,0,frases,NULL,PennController,51,_Trial_,Start,1737741188253,NULL
1737741721,bdf066947686ab2cd01768f202816430,PennController,50,0,frases,NULL,Selector,classificacao,Selection,neutra,1737741196921,negativa;neutra;positiva
1737741721,bdf066947686ab2cd01768f202816430,PennController,50,0,frases,NULL,PennController,51,_Trial_,End,1737741196922,NULL
1737741721,bdf066947686ab2cd01768f202816430,PennController,51,0,frases,NULL,PennController,52,_Trial_,Start,1737741196923,NULL
1737741721,bdf066947686ab2cd01768f202816430,PennController,51,0,frases,NULL,Selector,classificacao,Selection,positiva,1737741201108,negativa;neutra;positiva
1737741721,bdf066947686ab2cd01768f202816430,PennController,51,0,frases,NULL,PennController,52,_Trial_,End,1737741201109,NULL
1737741721,bdf066947686ab2cd01768f202816430,PennController,52,0,frases,NULL,PennController,53,_Trial_,Start,1737741201109,NULL
1737741721,bdf066947686ab2cd01768f202816430,PennController,52,0,frases,NULL,Selector,classificacao,Selection,negativa,1737741205372,negativa;neutra;positiva
1737741721,bdf066947686ab2cd01768f202816430,PennController,52,0,frases,NULL,PennController,53,_Trial_,End,1737741205374,NULL
1737741721,bdf066947686ab2cd01768f202816430,PennController,53,0,frases,NULL,PennController,54,_Trial_,Start,1737741205374,NULL
1737741721,bdf066947686ab2cd01768f202816430,PennController,53,0,frases,NULL,Selector,classificacao,Selection,negativa,1737741217244,negativa;neutra;positiva
1737741721,bdf066947686ab2cd01768f202816430,PennController,53,0,frases,NULL,PennController,54,_Trial_,End,1737741217245,NULL
1737741721,bdf066947686ab2cd01768f202816430,PennController,54,0,frases,NULL,PennController,55,_Trial_,Start,1737741217246,NULL
1737741721,bdf066947686ab2cd01768f202816430,PennController,54,0,frases,NULL,Selector,classificacao,Selection,neutra,1737741219997,negativa;neutra;positiva
1737741721,bdf066947686ab2cd01768f202816430,PennController,54,0,frases,NULL,PennController,55,_Trial_,End,1737741219998,NULL
1737741721,bdf066947686ab2cd01768f202816430,PennController,55,0,frases,NULL,PennController,56,_Trial_,Start,1737741219999,NULL
1737741721,bdf066947686ab2cd01768f202816430,PennController,55,0,frases,NULL,Selector,classificacao,Selection,neutra,1737741225022,negativa;neutra;positiva
1737741721,bdf066947686ab2cd01768f202816430,PennController,55,0,frases,NULL,PennController,56,_Trial_,End,1737741225023,NULL
1737741721,bdf066947686ab2cd01768f202816430,PennController,56,0,frases,NULL,PennController,57,_Trial_,Start,1737741225023,NULL
1737741721,bdf066947686ab2cd01768f202816430,PennController,56,0,frases,NULL,Selector,classificacao,Selection,neutra,1737741227431,negativa;neutra;positiva
1737741721,bdf066947686ab2cd01768f202816430,PennController,56,0,frases,NULL,PennController,57,_Trial_,End,1737741227432,NULL
1737741721,bdf066947686ab2cd01768f202816430,PennController,57,0,frases,NULL,PennController,58,_Trial_,Start,1737741227433,NULL
1737741721,bdf066947686ab2cd01768f202816430,PennController,57,0,frases,NULL,Selector,classificacao,Selection,negativa,1737741238807,negativa;neutra;positiva
1737741721,bdf066947686ab2cd01768f202816430,PennController,57,0,frases,NULL,PennController,58,_Trial_,End,1737741238808,NULL
1737741721,bdf066947686ab2cd01768f202816430,PennController,58,0,frases,NULL,PennController,59,_Trial_,Start,1737741238809,NULL
1737741721,bdf066947686ab2cd01768f202816430,PennController,58,0,frases,NULL,Selector,classificacao,Selection,neutra,1737741247526,negativa;neutra;positiva
1737741721,bdf066947686ab2cd01768f202816430,PennController,58,0,frases,NULL,PennController,59,_Trial_,End,1737741247527,NULL
1737741721,bdf066947686ab2cd01768f202816430,PennController,59,0,frases,NULL,PennController,60,_Trial_,Start,1737741247527,NULL
1737741721,bdf066947686ab2cd01768f202816430,PennController,59,0,frases,NULL,Selector,classificacao,Selection,neutra,1737741256070,negativa;neutra;positiva
1737741721,bdf066947686ab2cd01768f202816430,PennController,59,0,frases,NULL,PennController,60,_Trial_,End,1737741256071,NULL
1737741721,bdf066947686ab2cd01768f202816430,PennController,60,0,frases,NULL,PennController,61,_Trial_,Start,1737741256071,NULL
1737741721,bdf066947686ab2cd01768f202816430,PennController,60,0,frases,NULL,Selector,classificacao,Selection,neutra,1737741258206,negativa;neutra;positiva
1737741721,bdf066947686ab2cd01768f202816430,PennController,60,0,frases,NULL,PennController,61,_Trial_,End,1737741258207,NULL
1737741721,bdf066947686ab2cd01768f202816430,PennController,61,0,frases,NULL,PennController,62,_Trial_,Start,1737741258207,NULL
1737741721,bdf066947686ab2cd01768f202816430,PennController,61,0,frases,NULL,Selector,classificacao,Selection,positiva,1737741263931,negativa;neutra;positiva
1737741721,bdf066947686ab2cd01768f202816430,PennController,61,0,frases,NULL,PennController,62,_Trial_,End,1737741263932,NULL
1737741721,bdf066947686ab2cd01768f202816430,PennController,62,0,frases,NULL,PennController,63,_Trial_,Start,1737741263933,NULL
1737741721,bdf066947686ab2cd01768f202816430,PennController,62,0,frases,NULL,Selector,classificacao,Selection,neutra,1737741270081,negativa;neutra;positiva
1737741721,bdf066947686ab2cd01768f202816430,PennController,62,0,frases,NULL,PennController,63,_Trial_,End,1737741270082,NULL
1737741721,bdf066947686ab2cd01768f202816430,PennController,63,0,frases,NULL,PennController,64,_Trial_,Start,1737741270083,NULL
1737741721,bdf066947686ab2cd01768f202816430,PennController,63,0,frases,NULL,Selector,classificacao,Selection,negativa,1737741278132,negativa;neutra;positiva
1737741721,bdf066947686ab2cd01768f202816430,PennController,63,0,frases,NULL,PennController,64,_Trial_,End,1737741278133,NULL
1737741721,bdf066947686ab2cd01768f202816430,PennController,64,0,frases,NULL,PennController,65,_Trial_,Start,1737741278133,NULL
1737741721,bdf066947686ab2cd01768f202816430,PennController,64,0,frases,NULL,Selector,classificacao,Selection,neutra,1737741281670,negativa;neutra;positiva
1737741721,bdf066947686ab2cd01768f202816430,PennController,64,0,frases,NULL,PennController,65,_Trial_,End,1737741281671,NULL
1737741721,bdf066947686ab2cd01768f202816430,PennController,65,0,frases,NULL,PennController,66,_Trial_,Start,1737741281672,NULL
1737741721,bdf066947686ab2cd01768f202816430,PennController,65,0,frases,NULL,Selector,classificacao,Selection,neutra,1737741285144,negativa;neutra;positiva
1737741721,bdf066947686ab2cd01768f202816430,PennController,65,0,frases,NULL,PennController,66,_Trial_,End,1737741285145,NULL
1737741721,bdf066947686ab2cd01768f202816430,PennController,66,0,frases,NULL,PennController,67,_Trial_,Start,1737741285145,NULL
1737741721,bdf066947686ab2cd01768f202816430,PennController,66,0,frases,NULL,Selector,classificacao,Selection,neutra,1737741288570,negativa;neutra;positiva
1737741721,bdf066947686ab2cd01768f202816430,PennController,66,0,frases,NULL,PennController,67,_Trial_,End,1737741288571,NULL
1737741721,bdf066947686ab2cd01768f202816430,PennController,67,0,frases,NULL,PennController,68,_Trial_,Start,1737741288571,NULL
1737741721,bdf066947686ab2cd01768f202816430,PennController,67,0,frases,NULL,Selector,classificacao,Selection,negativa,1737741291409,negativa;neutra;positiva
1737741721,bdf066947686ab2cd01768f202816430,PennController,67,0,frases,NULL,PennController,68,_Trial_,End,1737741291410,NULL
1737741721,bdf066947686ab2cd01768f202816430,PennController,68,0,frases,NULL,PennController,69,_Trial_,Start,1737741291411,NULL
1737741721,bdf066947686ab2cd01768f202816430,PennController,68,0,frases,NULL,Selector,classificacao,Selection,neutra,1737741293860,negativa;neutra;positiva
1737741721,bdf066947686ab2cd01768f202816430,PennController,68,0,frases,NULL,PennController,69,_Trial_,End,1737741293861,NULL
1737741721,bdf066947686ab2cd01768f202816430,PennController,69,0,frases,NULL,PennController,70,_Trial_,Start,1737741293862,NULL
1737741721,bdf066947686ab2cd01768f202816430,PennController,69,0,frases,NULL,Selector,classificacao,Selection,neutra,1737741300307,negativa;neutra;positiva
1737741721,bdf066947686ab2cd01768f202816430,PennController,69,0,frases,NULL,PennController,70,_Trial_,End,1737741300308,NULL
1737741721,bdf066947686ab2cd01768f202816430,PennController,70,0,frases,NULL,PennController,71,_Trial_,Start,1737741300309,NULL
1737741721,bdf066947686ab2cd01768f202816430,PennController,70,0,frases,NULL,Selector,classificacao,Selection,neutra,1737741305159,negativa;neutra;positiva
1737741721,bdf066947686ab2cd01768f202816430,PennController,70,0,frases,NULL,PennController,71,_Trial_,End,1737741305160,NULL
1737741721,bdf066947686ab2cd01768f202816430,PennController,71,0,frases,NULL,PennController,72,_Trial_,Start,1737741305160,NULL
1737741721,bdf066947686ab2cd01768f202816430,PennController,71,0,frases,NULL,Selector,classificacao,Selection,negativa,1737741311631,negativa;neutra;positiva
1737741721,bdf066947686ab2cd01768f202816430,PennController,71,0,frases,NULL,PennController,72,_Trial_,End,1737741311631,NULL
1737741721,bdf066947686ab2cd01768f202816430,PennController,72,0,frases,NULL,PennController,73,_Trial_,Start,1737741311632,NULL
1737741721,bdf066947686ab2cd01768f202816430,PennController,72,0,frases,NULL,Selector,classificacao,Selection,negativa,1737741316933,negativa;neutra;positiva
1737741721,bdf066947686ab2cd01768f202816430,PennController,72,0,frases,NULL,PennController,73,_Trial_,End,1737741316934,NULL
1737741721,bdf066947686ab2cd01768f202816430,PennController,73,0,frases,NULL,PennController,74,_Trial_,Start,1737741316935,NULL
1737741721,bdf066947686ab2cd01768f202816430,PennController,73,0,frases,NULL,Selector,classificacao,Selection,neutra,1737741321229,negativa;neutra;positiva
1737741721,bdf066947686ab2cd01768f202816430,PennController,73,0,frases,NULL,PennController,74,_Trial_,End,1737741321230,NULL
1737741721,bdf066947686ab2cd01768f202816430,PennController,74,0,frases,NULL,PennController,75,_Trial_,Start,1737741321231,NULL
1737741721,bdf066947686ab2cd01768f202816430,PennController,74,0,frases,NULL,Selector,classificacao,Selection,neutra,1737741323616,negativa;neutra;positiva
1737741721,bdf066947686ab2cd01768f202816430,PennController,74,0,frases,NULL,PennController,75,_Trial_,End,1737741323616,NULL
1737741721,bdf066947686ab2cd01768f202816430,PennController,75,0,frases,NULL,PennController,76,_Trial_,Start,1737741323617,NULL
1737741721,bdf066947686ab2cd01768f202816430,PennController,75,0,frases,NULL,Selector,classificacao,Selection,negativa,1737741327434,negativa;neutra;positiva
1737741721,bdf066947686ab2cd01768f202816430,PennController,75,0,frases,NULL,PennController,76,_Trial_,End,1737741327435,NULL
1737741721,bdf066947686ab2cd01768f202816430,PennController,76,0,frases,NULL,PennController,77,_Trial_,Start,1737741327435,NULL
1737741721,bdf066947686ab2cd01768f202816430,PennController,76,0,frases,NULL,Selector,classificacao,Selection,positiva,1737741334139,negativa;neutra;positiva
1737741721,bdf066947686ab2cd01768f202816430,PennController,76,0,frases,NULL,PennController,77,_Trial_,End,1737741334140,NULL
1737741721,bdf066947686ab2cd01768f202816430,PennController,77,0,frases,NULL,PennController,78,_Trial_,Start,1737741334141,NULL
1737741721,bdf066947686ab2cd01768f202816430,PennController,77,0,frases,NULL,Selector,classificacao,Selection,neutra,1737741336002,negativa;neutra;positiva
1737741721,bdf066947686ab2cd01768f202816430,PennController,77,0,frases,NULL,PennController,78,_Trial_,End,1737741336003,NULL
1737741721,bdf066947686ab2cd01768f202816430,PennController,78,0,frases,NULL,PennController,79,_Trial_,Start,1737741336004,NULL
1737741721,bdf066947686ab2cd01768f202816430,PennController,78,0,frases,NULL,Selector,classificacao,Selection,positiva,1737741340397,negativa;neutra;positiva
1737741721,bdf066947686ab2cd01768f202816430,PennController,78,0,frases,NULL,PennController,79,_Trial_,End,1737741340398,NULL
1737741721,bdf066947686ab2cd01768f202816430,PennController,79,0,frases,NULL,PennController,80,_Trial_,Start,1737741340399,NULL
1737741721,bdf066947686ab2cd01768f202816430,PennController,79,0,frases,NULL,Selector,classificacao,Selection,neutra,1737741349248,negativa;neutra;positiva
1737741721,bdf066947686ab2cd01768f202816430,PennController,79,0,frases,NULL,PennController,80,_Trial_,End,1737741349249,NULL
1737741721,bdf066947686ab2cd01768f202816430,PennController,80,0,frases,NULL,PennController,81,_Trial_,Start,1737741349250,NULL
1737741721,bdf066947686ab2cd01768f202816430,PennController,80,0,frases,NULL,Selector,classificacao,Selection,neutra,1737741355537,negativa;neutra;positiva
1737741721,bdf066947686ab2cd01768f202816430,PennController,80,0,frases,NULL,PennController,81,_Trial_,End,1737741355538,NULL
1737741721,bdf066947686ab2cd01768f202816430,PennController,81,0,frases,NULL,PennController,82,_Trial_,Start,1737741355539,NULL
1737741721,bdf066947686ab2cd01768f202816430,PennController,81,0,frases,NULL,Selector,classificacao,Selection,neutra,1737741358071,negativa;neutra;positiva
1737741721,bdf066947686ab2cd01768f202816430,PennController,81,0,frases,NULL,PennController,82,_Trial_,End,1737741358072,NULL
1737741721,bdf066947686ab2cd01768f202816430,PennController,82,0,frases,NULL,PennController,83,_Trial_,Start,1737741358073,NULL
1737741721,bdf066947686ab2cd01768f202816430,PennController,82,0,frases,NULL,Selector,classificacao,Selection,negativa,1737741366115,negativa;neutra;positiva
1737741721,bdf066947686ab2cd01768f202816430,PennController,82,0,frases,NULL,PennController,83,_Trial_,End,1737741366116,NULL
1737741721,bdf066947686ab2cd01768f202816430,PennController,83,0,frases,NULL,PennController,84,_Trial_,Start,1737741366117,NULL
1737741721,bdf066947686ab2cd01768f202816430,PennController,83,0,frases,NULL,Selector,classificacao,Selection,positiva,1737741372884,negativa;neutra;positiva
1737741721,bdf066947686ab2cd01768f202816430,PennController,83,0,frases,NULL,PennController,84,_Trial_,End,1737741372885,NULL
1737741721,bdf066947686ab2cd01768f202816430,PennController,84,0,frases,NULL,PennController,85,_Trial_,Start,1737741372885,NULL
1737741721,bdf066947686ab2cd01768f202816430,PennController,84,0,frases,NULL,Selector,classificacao,Selection,positiva,1737741379955,negativa;neutra;positiva
1737741721,bdf066947686ab2cd01768f202816430,PennController,84,0,frases,NULL,PennController,85,_Trial_,End,1737741379956,NULL
1737741721,bdf066947686ab2cd01768f202816430,PennController,85,0,frases,NULL,PennController,86,_Trial_,Start,1737741379957,NULL
1737741721,bdf066947686ab2cd01768f202816430,PennController,85,0,frases,NULL,Selector,classificacao,Selection,positiva,1737741382734,negativa;neutra;positiva
1737741721,bdf066947686ab2cd01768f202816430,PennController,85,0,frases,NULL,PennController,86,_Trial_,End,1737741382735,NULL
1737741721,bdf066947686ab2cd01768f202816430,PennController,86,0,frases,NULL,PennController,87,_Trial_,Start,1737741382736,NULL
1737741721,bdf066947686ab2cd01768f202816430,PennController,86,0,frases,NULL,Selector,classificacao,Selection,neutra,1737741384824,negativa;neutra;positiva
1737741721,bdf066947686ab2cd01768f202816430,PennController,86,0,frases,NULL,PennController,87,_Trial_,End,1737741384824,NULL
1737741721,bdf066947686ab2cd01768f202816430,PennController,87,0,frases,NULL,PennController,88,_Trial_,Start,1737741384825,NULL
1737741721,bdf066947686ab2cd01768f202816430,PennController,87,0,frases,NULL,Selector,classificacao,Selection,neutra,1737741386232,negativa;neutra;positiva
1737741721,bdf066947686ab2cd01768f202816430,PennController,87,0,frases,NULL,PennController,88,_Trial_,End,1737741386233,NULL
1737741721,bdf066947686ab2cd01768f202816430,PennController,88,0,frases,NULL,PennController,89,_Trial_,Start,1737741386234,NULL
1737741721,bdf066947686ab2cd01768f202816430,PennController,88,0,frases,NULL,Selector,classificacao,Selection,negativa,1737741391701,negativa;neutra;positiva
1737741721,bdf066947686ab2cd01768f202816430,PennController,88,0,frases,NULL,PennController,89,_Trial_,End,1737741391702,NULL
1737741721,bdf066947686ab2cd01768f202816430,PennController,89,0,frases,NULL,PennController,90,_Trial_,Start,1737741391703,NULL
1737741721,bdf066947686ab2cd01768f202816430,PennController,89,0,frases,NULL,Selector,classificacao,Selection,neutra,1737741393868,negativa;neutra;positiva
1737741721,bdf066947686ab2cd01768f202816430,PennController,89,0,frases,NULL,PennController,90,_Trial_,End,1737741393869,NULL
1737741721,bdf066947686ab2cd01768f202816430,PennController,90,0,frases,NULL,PennController,91,_Trial_,Start,1737741393869,NULL
1737741721,bdf066947686ab2cd01768f202816430,PennController,90,0,frases,NULL,Selector,classificacao,Selection,neutra,1737741398877,negativa;neutra;positiva
