#
# Results on Thu, 23 Jan 2025 12:44:40 GMT
# USER AGENT: Mozilla/5.0 (Windows NT 10.0; Win64; x64) AppleWebKit/537.36 (KHTML, like Gecko) Chrome/131.0.0.0 Safari/537.36
# Design number was non-random = 0
#
# Columns below this comment are as follows:
# 1. Results reception time.
# 2. MD5 hash of participant's IP address.
# 3. Controller name.
# 4. Order number of item.
# 5. Inner element number.
# 6. Label.
# 7. Latin Square Group.
# 8. PennElementType.
# 9. PennElementName.
# 10. Parameter.
# 11. Value.
# 12. EventTime.
# 13. Comments.
1737636280,c2a6e53f5f6a5ef01c86cf67ae5c669b,PennController,0,0,TCLE,NULL,PennController,0,_Trial_,Start,1737634942920,NULL
1737636280,c2a6e53f5f6a5ef01c86cf67ae5c669b,PennController,0,0,TCLE,NULL,PennController,0,_Trial_,End,1737634978335,NULL
1737636280,c2a6e53f5f6a5ef01c86cf67ae5c669b,PennController,3,0,instrucoes,NULL,PennController,3,_Trial_,Start,1737634978337,NULL
1737636280,c2a6e53f5f6a5ef01c86cf67ae5c669b,PennController,3,0,instrucoes,NULL,PennController,3,_Trial_,End,1737634981268,NULL
1737636280,c2a6e53f5f6a5ef01c86cf67ae5c669b,PennController,1,0,genero,NULL,PennController,1,_Trial_,Start,1737634981270,NULL
1737636280,c2a6e53f5f6a5ef01c86cf67ae5c669b,PennController,1,0,genero,NULL,DropDown,selecionaGenero,Selected,Feminino,1737634984230,1
1737636280,c2a6e53f5f6a5ef01c86cf67ae5c669b,PennController,1,0,genero,NULL,PennController,1,_Trial_,End,1737634985371,NULL
1737636280,c2a6e53f5f6a5ef01c86cf67ae5c669b,PennController,4,0,frases,NULL,PennController,5,_Trial_,Start,1737634985373,NULL
1737636280,c2a6e53f5f6a5ef01c86cf67ae5c669b,PennController,4,0,frases,NULL,Selector,classificacao,Selection,neutra,1737635045036,negativa;neutra;positiva
1737636280,c2a6e53f5f6a5ef01c86cf67ae5c669b,PennController,4,0,frases,NULL,PennController,5,_Trial_,End,1737635045037,NULL
1737636280,c2a6e53f5f6a5ef01c86cf67ae5c669b,PennController,5,0,frases,NULL,PennController,6,_Trial_,Start,1737635045038,NULL
1737636280,c2a6e53f5f6a5ef01c86cf67ae5c669b,PennController,5,0,frases,NULL,Selector,classificacao,Selection,positiva,1737635048975,negativa;neutra;positiva
1737636280,c2a6e53f5f6a5ef01c86cf67ae5c669b,PennController,5,0,frases,NULL,PennController,6,_Trial_,End,1737635048976,NULL
1737636280,c2a6e53f5f6a5ef01c86cf67ae5c669b,PennController,6,0,frases,NULL,PennController,7,_Trial_,Start,1737635048977,NULL
1737636280,c2a6e53f5f6a5ef01c86cf67ae5c669b,PennController,6,0,frases,NULL,Selector,classificacao,Selection,positiva,1737635051868,negativa;neutra;positiva
1737636280,c2a6e53f5f6a5ef01c86cf67ae5c669b,PennController,6,0,frases,NULL,PennController,7,_Trial_,End,1737635051868,NULL
1737636280,c2a6e53f5f6a5ef01c86cf67ae5c669b,PennController,7,0,frases,NULL,PennController,8,_Trial_,Start,1737635051869,NULL
1737636280,c2a6e53f5f6a5ef01c86cf67ae5c669b,PennController,7,0,frases,NULL,Selector,classificacao,Selection,neutra,1737635055484,negativa;neutra;positiva
1737636280,c2a6e53f5f6a5ef01c86cf67ae5c669b,PennController,7,0,frases,NULL,PennController,8,_Trial_,End,1737635055486,NULL
1737636280,c2a6e53f5f6a5ef01c86cf67ae5c669b,PennController,8,0,frases,NULL,PennController,9,_Trial_,Start,1737635055489,NULL
1737636280,c2a6e53f5f6a5ef01c86cf67ae5c669b,PennController,8,0,frases,NULL,Selector,classificacao,Selection,neutra,1737635067417,negativa;neutra;positiva
1737636280,c2a6e53f5f6a5ef01c86cf67ae5c669b,PennController,8,0,frases,NULL,PennController,9,_Trial_,End,1737635067418,NULL
1737636280,c2a6e53f5f6a5ef01c86cf67ae5c669b,PennController,9,0,frases,NULL,PennController,10,_Trial_,Start,1737635067418,NULL
1737636280,c2a6e53f5f6a5ef01c86cf67ae5c669b,PennController,9,0,frases,NULL,Selector,classificacao,Selection,negativa,1737635073240,negativa;neutra;positiva
1737636280,c2a6e53f5f6a5ef01c86cf67ae5c669b,PennController,9,0,frases,NULL,PennController,10,_Trial_,End,1737635073242,NULL
1737636280,c2a6e53f5f6a5ef01c86cf67ae5c669b,PennController,10,0,frases,NULL,PennController,11,_Trial_,Start,1737635073243,NULL
1737636280,c2a6e53f5f6a5ef01c86cf67ae5c669b,PennController,10,0,frases,NULL,Selector,classificacao,Selection,negativa,1737635079382,negativa;neutra;positiva
1737636280,c2a6e53f5f6a5ef01c86cf67ae5c669b,PennController,10,0,frases,NULL,PennController,11,_Trial_,End,1737635079383,NULL
1737636280,c2a6e53f5f6a5ef01c86cf67ae5c669b,PennController,11,0,frases,NULL,PennController,12,_Trial_,Start,1737635079384,NULL
1737636280,c2a6e53f5f6a5ef01c86cf67ae5c669b,PennController,11,0,frases,NULL,Selector,classificacao,Selection,neutra,1737635089594,negativa;neutra;positiva
1737636280,c2a6e53f5f6a5ef01c86cf67ae5c669b,PennController,11,0,frases,NULL,PennController,12,_Trial_,End,1737635089595,NULL
1737636280,c2a6e53f5f6a5ef01c86cf67ae5c669b,PennController,12,0,frases,NULL,PennController,13,_Trial_,Start,1737635089596,NULL
1737636280,c2a6e53f5f6a5ef01c86cf67ae5c669b,PennController,12,0,frases,NULL,Selector,classificacao,Selection,neutra,1737635242378,negativa;neutra;positiva
1737636280,c2a6e53f5f6a5ef01c86cf67ae5c669b,PennController,12,0,frases,NULL,PennController,13,_Trial_,End,1737635242379,NULL
1737636280,c2a6e53f5f6a5ef01c86cf67ae5c669b,PennController,13,0,frases,NULL,PennController,14,_Trial_,Start,1737635242380,NULL
1737636280,c2a6e53f5f6a5ef01c86cf67ae5c669b,PennController,13,0,frases,NULL,Selector,classificacao,Selection,neutra,1737635247948,negativa;neutra;positiva
1737636280,c2a6e53f5f6a5ef01c86cf67ae5c669b,PennController,13,0,frases,NULL,PennController,14,_Trial_,End,1737635247950,NULL
1737636280,c2a6e53f5f6a5ef01c86cf67ae5c669b,PennController,14,0,frases,NULL,PennController,15,_Trial_,Start,1737635247951,NULL
1737636280,c2a6e53f5f6a5ef01c86cf67ae5c669b,PennController,14,0,frases,NULL,Selector,classificacao,Selection,neutra,1737635253174,negativa;neutra;positiva
1737636280,c2a6e53f5f6a5ef01c86cf67ae5c669b,PennController,14,0,frases,NULL,PennController,15,_Trial_,End,1737635253175,NULL
1737636280,c2a6e53f5f6a5ef01c86cf67ae5c669b,PennController,15,0,frases,NULL,PennController,16,_Trial_,Start,1737635253175,NULL
1737636280,c2a6e53f5f6a5ef01c86cf67ae5c669b,PennController,15,0,frases,NULL,Selector,classificacao,Selection,negativa,1737635255406,negativa;neutra;positiva
1737636280,c2a6e53f5f6a5ef01c86cf67ae5c669b,PennController,15,0,frases,NULL,PennController,16,_Trial_,End,1737635255407,NULL
1737636280,c2a6e53f5f6a5ef01c86cf67ae5c669b,PennController,16,0,frases,NULL,PennController,17,_Trial_,Start,1737635255408,NULL
1737636280,c2a6e53f5f6a5ef01c86cf67ae5c669b,PennController,16,0,frases,NULL,Selector,classificacao,Selection,negativa,1737635260701,negativa;neutra;positiva
1737636280,c2a6e53f5f6a5ef01c86cf67ae5c669b,PennController,16,0,frases,NULL,PennController,17,_Trial_,End,1737635260702,NULL
1737636280,c2a6e53f5f6a5ef01c86cf67ae5c669b,PennController,17,0,frases,NULL,PennController,18,_Trial_,Start,1737635260703,NULL
1737636280,c2a6e53f5f6a5ef01c86cf67ae5c669b,PennController,17,0,frases,NULL,Selector,classificacao,Selection,positiva,1737635265049,negativa;neutra;positiva
1737636280,c2a6e53f5f6a5ef01c86cf67ae5c669b,PennController,17,0,frases,NULL,PennController,18,_Trial_,End,1737635265050,NULL
1737636280,c2a6e53f5f6a5ef01c86cf67ae5c669b,PennController,18,0,frases,NULL,PennController,19,_Trial_,Start,1737635265051,NULL
1737636280,c2a6e53f5f6a5ef01c86cf67ae5c669b,PennController,18,0,frases,NULL,Selector,classificacao,Selection,positiva,1737635274504,negativa;neutra;positiva
1737636280,c2a6e53f5f6a5ef01c86cf67ae5c669b,PennController,18,0,frases,NULL,PennController,19,_Trial_,End,1737635274505,NULL
1737636280,c2a6e53f5f6a5ef01c86cf67ae5c669b,PennController,19,0,frases,NULL,PennController,20,_Trial_,Start,1737635274507,NULL
1737636280,c2a6e53f5f6a5ef01c86cf67ae5c669b,PennController,19,0,frases,NULL,Selector,classificacao,Selection,negativa,1737635279368,negativa;neutra;positiva
1737636280,c2a6e53f5f6a5ef01c86cf67ae5c669b,PennController,19,0,frases,NULL,PennController,20,_Trial_,End,1737635279369,NULL
1737636280,c2a6e53f5f6a5ef01c86cf67ae5c669b,PennController,20,0,frases,NULL,PennController,21,_Trial_,Start,1737635279370,NULL
1737636280,c2a6e53f5f6a5ef01c86cf67ae5c669b,PennController,20,0,frases,NULL,Selector,classificacao,Selection,negativa,1737635289515,negativa;neutra;positiva
1737636280,c2a6e53f5f6a5ef01c86cf67ae5c669b,PennController,20,0,frases,NULL,PennController,21,_Trial_,End,1737635289516,NULL
1737636280,c2a6e53f5f6a5ef01c86cf67ae5c669b,PennController,21,0,frases,NULL,PennController,22,_Trial_,Start,1737635289517,NULL
1737636280,c2a6e53f5f6a5ef01c86cf67ae5c669b,PennController,21,0,frases,NULL,Selector,classificacao,Selection,positiva,1737635295368,negativa;neutra;positiva
1737636280,c2a6e53f5f6a5ef01c86cf67ae5c669b,PennController,21,0,frases,NULL,PennController,22,_Trial_,End,1737635295369,NULL
1737636280,c2a6e53f5f6a5ef01c86cf67ae5c669b,PennController,22,0,frases,NULL,PennController,23,_Trial_,Start,1737635295370,NULL
1737636280,c2a6e53f5f6a5ef01c86cf67ae5c669b,PennController,22,0,frases,NULL,Selector,classificacao,Selection,positiva,1737635305431,negativa;neutra;positiva
1737636280,c2a6e53f5f6a5ef01c86cf67ae5c669b,PennController,22,0,frases,NULL,PennController,23,_Trial_,End,1737635305433,NULL
1737636280,c2a6e53f5f6a5ef01c86cf67ae5c669b,PennController,23,0,frases,NULL,PennController,24,_Trial_,Start,1737635305434,NULL
1737636280,c2a6e53f5f6a5ef01c86cf67ae5c669b,PennController,23,0,frases,NULL,Selector,classificacao,Selection,neutra,1737635312927,negativa;neutra;positiva
1737636280,c2a6e53f5f6a5ef01c86cf67ae5c669b,PennController,23,0,frases,NULL,PennController,24,_Trial_,End,1737635312928,NULL
1737636280,c2a6e53f5f6a5ef01c86cf67ae5c669b,PennController,24,0,frases,NULL,PennController,25,_Trial_,Start,1737635312929,NULL
1737636280,c2a6e53f5f6a5ef01c86cf67ae5c669b,PennController,24,0,frases,NULL,Selector,classificacao,Selection,positiva,1737635317715,negativa;neutra;positiva
1737636280,c2a6e53f5f6a5ef01c86cf67ae5c669b,PennController,24,0,frases,NULL,PennController,25,_Trial_,End,1737635317716,NULL
1737636280,c2a6e53f5f6a5ef01c86cf67ae5c669b,PennController,25,0,frases,NULL,PennController,26,_Trial_,Start,1737635317717,NULL
1737636280,c2a6e53f5f6a5ef01c86cf67ae5c669b,PennController,25,0,frases,NULL,Selector,classificacao,Selection,neutra,1737635325675,negativa;neutra;positiva
1737636280,c2a6e53f5f6a5ef01c86cf67ae5c669b,PennController,25,0,frases,NULL,PennController,26,_Trial_,End,1737635325676,NULL
1737636280,c2a6e53f5f6a5ef01c86cf67ae5c669b,PennController,26,0,frases,NULL,PennController,27,_Trial_,Start,1737635325677,NULL
1737636280,c2a6e53f5f6a5ef01c86cf67ae5c669b,PennController,26,0,frases,NULL,Selector,classificacao,Selection,neutra,1737635334895,negativa;neutra;positiva
1737636280,c2a6e53f5f6a5ef01c86cf67ae5c669b,PennController,26,0,frases,NULL,PennController,27,_Trial_,End,1737635334896,NULL
1737636280,c2a6e53f5f6a5ef01c86cf67ae5c669b,PennController,27,0,frases,NULL,PennController,28,_Trial_,Start,1737635334897,NULL
1737636280,c2a6e53f5f6a5ef01c86cf67ae5c669b,PennController,27,0,frases,NULL,Selector,classificacao,Selection,positiva,1737635341071,negativa;neutra;positiva
1737636280,c2a6e53f5f6a5ef01c86cf67ae5c669b,PennController,27,0,frases,NULL,PennController,28,_Trial_,End,1737635341072,NULL
1737636280,c2a6e53f5f6a5ef01c86cf67ae5c669b,PennController,28,0,frases,NULL,PennController,29,_Trial_,Start,1737635341073,NULL
1737636280,c2a6e53f5f6a5ef01c86cf67ae5c669b,PennController,28,0,frases,NULL,Selector,classificacao,Selection,neutra,1737635362687,negativa;neutra;positiva
1737636280,c2a6e53f5f6a5ef01c86cf67ae5c669b,PennController,28,0,frases,NULL,PennController,29,_Trial_,End,1737635362688,NULL
1737636280,c2a6e53f5f6a5ef01c86cf67ae5c669b,PennController,29,0,frases,NULL,PennController,30,_Trial_,Start,1737635362690,NULL
1737636280,c2a6e53f5f6a5ef01c86cf67ae5c669b,PennController,29,0,frases,NULL,Selector,classificacao,Selection,positiva,1737635367814,negativa;neutra;positiva
1737636280,c2a6e53f5f6a5ef01c86cf67ae5c669b,PennController,29,0,frases,NULL,PennController,30,_Trial_,End,1737635367815,NULL
1737636280,c2a6e53f5f6a5ef01c86cf67ae5c669b,PennController,30,0,frases,NULL,PennController,31,_Trial_,Start,1737635367817,NULL
1737636280,c2a6e53f5f6a5ef01c86cf67ae5c669b,PennController,30,0,frases,NULL,Selector,classificacao,Selection,positiva,1737635370005,negativa;neutra;positiva
1737636280,c2a6e53f5f6a5ef01c86cf67ae5c669b,PennController,30,0,frases,NULL,PennController,31,_Trial_,End,1737635370006,NULL
1737636280,c2a6e53f5f6a5ef01c86cf67ae5c669b,PennController,31,0,frases,NULL,PennController,32,_Trial_,Start,1737635370006,NULL
1737636280,c2a6e53f5f6a5ef01c86cf67ae5c669b,PennController,31,0,frases,NULL,Selector,classificacao,Selection,neutra,1737635372537,negativa;neutra;positiva
1737636280,c2a6e53f5f6a5ef01c86cf67ae5c669b,PennController,31,0,frases,NULL,PennController,32,_Trial_,End,1737635372538,NULL
1737636280,c2a6e53f5f6a5ef01c86cf67ae5c669b,PennController,32,0,frases,NULL,PennController,33,_Trial_,Start,1737635372539,NULL
1737636280,c2a6e53f5f6a5ef01c86cf67ae5c669b,PennController,32,0,frases,NULL,Selector,classificacao,Selection,neutra,1737635377337,negativa;neutra;positiva
1737636280,c2a6e53f5f6a5ef01c86cf67ae5c669b,PennController,32,0,frases,NULL,PennController,33,_Trial_,End,1737635377337,NULL
1737636280,c2a6e53f5f6a5ef01c86cf67ae5c669b,PennController,33,0,frases,NULL,PennController,34,_Trial_,Start,1737635377338,NULL
1737636280,c2a6e53f5f6a5ef01c86cf67ae5c669b,PennController,33,0,frases,NULL,Selector,classificacao,Selection,negativa,1737635383723,negativa;neutra;positiva
1737636280,c2a6e53f5f6a5ef01c86cf67ae5c669b,PennController,33,0,frases,NULL,PennController,34,_Trial_,End,1737635383724,NULL
1737636280,c2a6e53f5f6a5ef01c86cf67ae5c669b,PennController,34,0,frases,NULL,PennController,35,_Trial_,Start,1737635383725,NULL
1737636280,c2a6e53f5f6a5ef01c86cf67ae5c669b,PennController,34,0,frases,NULL,Selector,classificacao,Selection,neutra,1737635389001,negativa;neutra;positiva
1737636280,c2a6e53f5f6a5ef01c86cf67ae5c669b,PennController,34,0,frases,NULL,PennController,35,_Trial_,End,1737635389002,NULL
1737636280,c2a6e53f5f6a5ef01c86cf67ae5c669b,PennController,35,0,frases,NULL,PennController,36,_Trial_,Start,1737635389002,NULL
1737636280,c2a6e53f5f6a5ef01c86cf67ae5c669b,PennController,35,0,frases,NULL,Selector,classificacao,Selection,negativa,1737635397585,negativa;neutra;positiva
1737636280,c2a6e53f5f6a5ef01c86cf67ae5c669b,PennController,35,0,frases,NULL,PennController,36,_Trial_,End,1737635397586,NULL
1737636280,c2a6e53f5f6a5ef01c86cf67ae5c669b,PennController,36,0,frases,NULL,PennController,37,_Trial_,Start,1737635397588,NULL
1737636280,c2a6e53f5f6a5ef01c86cf67ae5c669b,PennController,36,0,frases,NULL,Selector,classificacao,Selection,negativa,1737635400968,negativa;neutra;positiva
1737636280,c2a6e53f5f6a5ef01c86cf67ae5c669b,PennController,36,0,frases,NULL,PennController,37,_Trial_,End,1737635400969,NULL
1737636280,c2a6e53f5f6a5ef01c86cf67ae5c669b,PennController,37,0,frases,NULL,PennController,38,_Trial_,Start,1737635400970,NULL
1737636280,c2a6e53f5f6a5ef01c86cf67ae5c669b,PennController,37,0,frases,NULL,Selector,classificacao,Selection,neutra,1737635406231,negativa;neutra;positiva
1737636280,c2a6e53f5f6a5ef01c86cf67ae5c669b,PennController,37,0,frases,NULL,PennController,38,_Trial_,End,1737635406232,NULL
1737636280,c2a6e53f5f6a5ef01c86cf67ae5c669b,PennController,38,0,frases,NULL,PennController,39,_Trial_,Start,1737635406233,NULL
1737636280,c2a6e53f5f6a5ef01c86cf67ae5c669b,PennController,38,0,frases,NULL,Selector,classificacao,Selection,positiva,1737635492343,negativa;neutra;positiva
1737636280,c2a6e53f5f6a5ef01c86cf67ae5c669b,PennController,38,0,frases,NULL,PennController,39,_Trial_,End,1737635492344,NULL
1737636280,c2a6e53f5f6a5ef01c86cf67ae5c669b,PennController,39,0,frases,NULL,PennController,40,_Trial_,Start,1737635492345,NULL
1737636280,c2a6e53f5f6a5ef01c86cf67ae5c669b,PennController,39,0,frases,NULL,Selector,classificacao,Selection,neutra,1737635498386,negativa;neutra;positiva
1737636280,c2a6e53f5f6a5ef01c86cf67ae5c669b,PennController,39,0,frases,NULL,PennController,40,_Trial_,End,1737635498387,NULL
1737636280,c2a6e53f5f6a5ef01c86cf67ae5c669b,PennController,40,0,frases,NULL,PennController,41,_Trial_,Start,1737635498387,NULL
1737636280,c2a6e53f5f6a5ef01c86cf67ae5c669b,PennController,40,0,frases,NULL,Selector,classificacao,Selection,neutra,1737635502642,negativa;neutra;positiva
1737636280,c2a6e53f5f6a5ef01c86cf67ae5c669b,PennController,40,0,frases,NULL,PennController,41,_Trial_,End,1737635502642,NULL
1737636280,c2a6e53f5f6a5ef01c86cf67ae5c669b,PennController,41,0,frases,NULL,PennController,42,_Trial_,Start,1737635502643,NULL
1737636280,c2a6e53f5f6a5ef01c86cf67ae5c669b,PennController,41,0,frases,NULL,Selector,classificacao,Selection,positiva,1737635505823,negativa;neutra;positiva
1737636280,c2a6e53f5f6a5ef01c86cf67ae5c669b,PennController,41,0,frases,NULL,PennController,42,_Trial_,End,1737635505823,NULL
1737636280,c2a6e53f5f6a5ef01c86cf67ae5c669b,PennController,42,0,frases,NULL,PennController,43,_Trial_,Start,1737635505824,NULL
1737636280,c2a6e53f5f6a5ef01c86cf67ae5c669b,PennController,42,0,frases,NULL,Selector,classificacao,Selection,negativa,1737635515690,negativa;neutra;positiva
1737636280,c2a6e53f5f6a5ef01c86cf67ae5c669b,PennController,42,0,frases,NULL,PennController,43,_Trial_,End,1737635515691,NULL
1737636280,c2a6e53f5f6a5ef01c86cf67ae5c669b,PennController,43,0,frases,NULL,PennController,44,_Trial_,Start,1737635515692,NULL
1737636280,c2a6e53f5f6a5ef01c86cf67ae5c669b,PennController,43,0,frases,NULL,Selector,classificacao,Selection,negativa,1737635525622,negativa;neutra;positiva
1737636280,c2a6e53f5f6a5ef01c86cf67ae5c669b,PennController,43,0,frases,NULL,PennController,44,_Trial_,End,1737635525623,NULL
1737636280,c2a6e53f5f6a5ef01c86cf67ae5c669b,PennController,44,0,frases,NULL,PennController,45,_Trial_,Start,1737635525624,NULL
1737636280,c2a6e53f5f6a5ef01c86cf67ae5c669b,PennController,44,0,frases,NULL,Selector,classificacao,Selection,neutra,1737635529652,negativa;neutra;positiva
1737636280,c2a6e53f5f6a5ef01c86cf67ae5c669b,PennController,44,0,frases,NULL,PennController,45,_Trial_,End,1737635529653,NULL
1737636280,c2a6e53f5f6a5ef01c86cf67ae5c669b,PennController,45,0,frases,NULL,PennController,46,_Trial_,Start,1737635529654,NULL
1737636280,c2a6e53f5f6a5ef01c86cf67ae5c669b,PennController,45,0,frases,NULL,Selector,classificacao,Selection,neutra,1737635536542,negativa;neutra;positiva
1737636280,c2a6e53f5f6a5ef01c86cf67ae5c669b,PennController,45,0,frases,NULL,PennController,46,_Trial_,End,1737635536543,NULL
1737636280,c2a6e53f5f6a5ef01c86cf67ae5c669b,PennController,46,0,frases,NULL,PennController,47,_Trial_,Start,1737635536544,NULL
1737636280,c2a6e53f5f6a5ef01c86cf67ae5c669b,PennController,46,0,frases,NULL,Selector,classificacao,Selection,neutra,1737635540074,negativa;neutra;positiva
1737636280,c2a6e53f5f6a5ef01c86cf67ae5c669b,PennController,46,0,frases,NULL,PennController,47,_Trial_,End,1737635540075,NULL
1737636280,c2a6e53f5f6a5ef01c86cf67ae5c669b,PennController,47,0,frases,NULL,PennController,48,_Trial_,Start,1737635540076,NULL
1737636280,c2a6e53f5f6a5ef01c86cf67ae5c669b,PennController,47,0,frases,NULL,Selector,classificacao,Selection,neutra,1737635545156,negativa;neutra;positiva
1737636280,c2a6e53f5f6a5ef01c86cf67ae5c669b,PennController,47,0,frases,NULL,PennController,48,_Trial_,End,1737635545157,NULL
1737636280,c2a6e53f5f6a5ef01c86cf67ae5c669b,PennController,48,0,frases,NULL,PennController,49,_Trial_,Start,1737635545159,NULL
1737636280,c2a6e53f5f6a5ef01c86cf67ae5c669b,PennController,48,0,frases,NULL,Selector,classificacao,Selection,neutra,1737635549926,negativa;neutra;positiva
1737636280,c2a6e53f5f6a5ef01c86cf67ae5c669b,PennController,48,0,frases,NULL,PennController,49,_Trial_,End,1737635549927,NULL
1737636280,c2a6e53f5f6a5ef01c86cf67ae5c669b,PennController,49,0,frases,NULL,PennController,50,_Trial_,Start,1737635549928,NULL
1737636280,c2a6e53f5f6a5ef01c86cf67ae5c669b,PennController,49,0,frases,NULL,Selector,classificacao,Selection,neutra,1737635558022,negativa;neutra;positiva
1737636280,c2a6e53f5f6a5ef01c86cf67ae5c669b,PennController,49,0,frases,NULL,PennController,50,_Trial_,End,1737635558023,NULL
1737636280,c2a6e53f5f6a5ef01c86cf67ae5c669b,PennController,50,0,frases,NULL,PennController,51,_Trial_,Start,1737635558024,NULL
1737636280,c2a6e53f5f6a5ef01c86cf67ae5c669b,PennController,50,0,frases,NULL,Selector,classificacao,Selection,neutra,1737635560306,negativa;neutra;positiva
1737636280,c2a6e53f5f6a5ef01c86cf67ae5c669b,PennController,50,0,frases,NULL,PennController,51,_Trial_,End,1737635560308,NULL
1737636280,c2a6e53f5f6a5ef01c86cf67ae5c669b,PennController,51,0,frases,NULL,PennController,52,_Trial_,Start,1737635560310,NULL
1737636280,c2a6e53f5f6a5ef01c86cf67ae5c669b,PennController,51,0,frases,NULL,Selector,classificacao,Selection,negativa,1737635563864,negativa;neutra;positiva
1737636280,c2a6e53f5f6a5ef01c86cf67ae5c669b,PennController,51,0,frases,NULL,PennController,52,_Trial_,End,1737635563866,NULL
1737636280,c2a6e53f5f6a5ef01c86cf67ae5c669b,PennController,52,0,frases,NULL,PennController,53,_Trial_,Start,1737635563868,NULL
1737636280,c2a6e53f5f6a5ef01c86cf67ae5c669b,PennController,52,0,frases,NULL,Selector,classificacao,Selection,positiva,1737635573956,negativa;neutra;positiva
1737636280,c2a6e53f5f6a5ef01c86cf67ae5c669b,PennController,52,0,frases,NULL,PennController,53,_Trial_,End,1737635573957,NULL
1737636280,c2a6e53f5f6a5ef01c86cf67ae5c669b,PennController,53,0,frases,NULL,PennController,54,_Trial_,Start,1737635573958,NULL
1737636280,c2a6e53f5f6a5ef01c86cf67ae5c669b,PennController,53,0,frases,NULL,Selector,classificacao,Selection,neutra,1737635590314,negativa;neutra;positiva
1737636280,c2a6e53f5f6a5ef01c86cf67ae5c669b,PennController,53,0,frases,NULL,PennController,54,_Trial_,End,1737635590316,NULL
1737636280,c2a6e53f5f6a5ef01c86cf67ae5c669b,PennController,54,0,frases,NULL,PennController,55,_Trial_,Start,1737635590317,NULL
1737636280,c2a6e53f5f6a5ef01c86cf67ae5c669b,PennController,54,0,frases,NULL,Selector,classificacao,Selection,negativa,1737635596882,negativa;neutra;positiva
1737636280,c2a6e53f5f6a5ef01c86cf67ae5c669b,PennController,54,0,frases,NULL,PennController,55,_Trial_,End,1737635596883,NULL
1737636280,c2a6e53f5f6a5ef01c86cf67ae5c669b,PennController,55,0,frases,NULL,PennController,56,_Trial_,Start,1737635596884,NULL
1737636280,c2a6e53f5f6a5ef01c86cf67ae5c669b,PennController,55,0,frases,NULL,Selector,classificacao,Selection,negativa,1737635600343,negativa;neutra;positiva
1737636280,c2a6e53f5f6a5ef01c86cf67ae5c669b,PennController,55,0,frases,NULL,PennController,56,_Trial_,End,1737635600345,NULL
1737636280,c2a6e53f5f6a5ef01c86cf67ae5c669b,PennController,56,0,frases,NULL,PennController,57,_Trial_,Start,1737635600346,NULL
1737636280,c2a6e53f5f6a5ef01c86cf67ae5c669b,PennController,56,0,frases,NULL,Selector,classificacao,Selection,neutra,1737635604358,negativa;neutra;positiva
1737636280,c2a6e53f5f6a5ef01c86cf67ae5c669b,PennController,56,0,frases,NULL,PennController,57,_Trial_,End,1737635604359,NULL
1737636280,c2a6e53f5f6a5ef01c86cf67ae5c669b,PennController,57,0,frases,NULL,PennController,58,_Trial_,Start,1737635604360,NULL
1737636280,c2a6e53f5f6a5ef01c86cf67ae5c669b,PennController,57,0,frases,NULL,Selector,classificacao,Selection,neutra,1737635612512,negativa;neutra;positiva
1737636280,c2a6e53f5f6a5ef01c86cf67ae5c669b,PennController,57,0,frases,NULL,PennController,58,_Trial_,End,1737635612513,NULL
1737636280,c2a6e53f5f6a5ef01c86cf67ae5c669b,PennController,58,0,frases,NULL,PennController,59,_Trial_,Start,1737635612513,NULL
1737636280,c2a6e53f5f6a5ef01c86cf67ae5c669b,PennController,58,0,frases,NULL,Selector,classificacao,Selection,negativa,1737635615241,negativa;neutra;positiva
1737636280,c2a6e53f5f6a5ef01c86cf67ae5c669b,PennController,58,0,frases,NULL,PennController,59,_Trial_,End,1737635615241,NULL
1737636280,c2a6e53f5f6a5ef01c86cf67ae5c669b,PennController,59,0,frases,NULL,PennController,60,_Trial_,Start,1737635615242,NULL
1737636280,c2a6e53f5f6a5ef01c86cf67ae5c669b,PennController,59,0,frases,NULL,Selector,classificacao,Selection,neutra,1737635618174,negativa;neutra;positiva
1737636280,c2a6e53f5f6a5ef01c86cf67ae5c669b,PennController,59,0,frases,NULL,PennController,60,_Trial_,End,1737635618175,NULL
1737636280,c2a6e53f5f6a5ef01c86cf67ae5c669b,PennController,60,0,frases,NULL,PennController,61,_Trial_,Start,1737635618176,NULL
1737636280,c2a6e53f5f6a5ef01c86cf67ae5c669b,PennController,60,0,frases,NULL,Selector,classificacao,Selection,negativa,1737635622917,negativa;neutra;positiva
1737636280,c2a6e53f5f6a5ef01c86cf67ae5c669b,PennController,60,0,frases,NULL,PennController,61,_Trial_,End,1737635622917,NULL
1737636280,c2a6e53f5f6a5ef01c86cf67ae5c669b,PennController,61,0,frases,NULL,PennController,62,_Trial_,Start,1737635622918,NULL
1737636280,c2a6e53f5f6a5ef01c86cf67ae5c669b,PennController,61,0,frases,NULL,Selector,classificacao,Selection,positiva,1737635634443,negativa;neutra;positiva
1737636280,c2a6e53f5f6a5ef01c86cf67ae5c669b,PennController,61,0,frases,NULL,PennController,62,_Trial_,End,1737635634444,NULL
1737636280,c2a6e53f5f6a5ef01c86cf67ae5c669b,PennController,62,0,frases,NULL,PennController,63,_Trial_,Start,1737635634445,NULL
1737636280,c2a6e53f5f6a5ef01c86cf67ae5c669b,PennController,62,0,frases,NULL,Selector,classificacao,Selection,neutra,1737635639186,negativa;neutra;positiva
1737636280,c2a6e53f5f6a5ef01c86cf67ae5c669b,PennController,62,0,frases,NULL,PennController,63,_Trial_,End,1737635639187,NULL
1737636280,c2a6e53f5f6a5ef01c86cf67ae5c669b,PennController,63,0,frases,NULL,PennController,64,_Trial_,Start,1737635639188,NULL
1737636280,c2a6e53f5f6a5ef01c86cf67ae5c669b,PennController,63,0,frases,NULL,Selector,classificacao,Selection,neutra,1737635648112,negativa;neutra;positiva
1737636280,c2a6e53f5f6a5ef01c86cf67ae5c669b,PennController,63,0,frases,NULL,PennController,64,_Trial_,End,1737635648113,NULL
1737636280,c2a6e53f5f6a5ef01c86cf67ae5c669b,PennController,64,0,frases,NULL,PennController,65,_Trial_,Start,1737635648114,NULL
1737636280,c2a6e53f5f6a5ef01c86cf67ae5c669b,PennController,64,0,frases,NULL,Selector,classificacao,Selection,neutra,1737635650074,negativa;neutra;positiva
1737636280,c2a6e53f5f6a5ef01c86cf67ae5c669b,PennController,64,0,frases,NULL,PennController,65,_Trial_,End,1737635650075,NULL
1737636280,c2a6e53f5f6a5ef01c86cf67ae5c669b,PennController,65,0,frases,NULL,PennController,66,_Trial_,Start,1737635650076,NULL
1737636280,c2a6e53f5f6a5ef01c86cf67ae5c669b,PennController,65,0,frases,NULL,Selector,classificacao,Selection,neutra,1737635657886,negativa;neutra;positiva
1737636280,c2a6e53f5f6a5ef01c86cf67ae5c669b,PennController,65,0,frases,NULL,PennController,66,_Trial_,End,1737635657887,NULL
1737636280,c2a6e53f5f6a5ef01c86cf67ae5c669b,PennController,66,0,frases,NULL,PennController,67,_Trial_,Start,1737635657887,NULL
1737636280,c2a6e53f5f6a5ef01c86cf67ae5c669b,PennController,66,0,frases,NULL,Selector,classificacao,Selection,neutra,1737635665113,negativa;neutra;positiva
1737636280,c2a6e53f5f6a5ef01c86cf67ae5c669b,PennController,66,0,frases,NULL,PennController,67,_Trial_,End,1737635665114,NULL
1737636280,c2a6e53f5f6a5ef01c86cf67ae5c669b,PennController,67,0,frases,NULL,PennController,68,_Trial_,Start,1737635665115,NULL
1737636280,c2a6e53f5f6a5ef01c86cf67ae5c669b,PennController,67,0,frases,NULL,Selector,classificacao,Selection,positiva,1737635668944,negativa;neutra;positiva
1737636280,c2a6e53f5f6a5ef01c86cf67ae5c669b,PennController,67,0,frases,NULL,PennController,68,_Trial_,End,1737635668944,NULL
1737636280,c2a6e53f5f6a5ef01c86cf67ae5c669b,PennController,68,0,frases,NULL,PennController,69,_Trial_,Start,1737635668945,NULL
1737636280,c2a6e53f5f6a5ef01c86cf67ae5c669b,PennController,68,0,frases,NULL,Selector,classificacao,Selection,neutra,1737635671794,negativa;neutra;positiva
1737636280,c2a6e53f5f6a5ef01c86cf67ae5c669b,PennController,68,0,frases,NULL,PennController,69,_Trial_,End,1737635671795,NULL
1737636280,c2a6e53f5f6a5ef01c86cf67ae5c669b,PennController,69,0,frases,NULL,PennController,70,_Trial_,Start,1737635671796,NULL
1737636280,c2a6e53f5f6a5ef01c86cf67ae5c669b,PennController,69,0,frases,NULL,Selector,classificacao,Selection,neutra,1737635677916,negativa;neutra;positiva
1737636280,c2a6e53f5f6a5ef01c86cf67ae5c669b,PennController,69,0,frases,NULL,PennController,70,_Trial_,End,1737635677917,NULL
1737636280,c2a6e53f5f6a5ef01c86cf67ae5c669b,PennController,70,0,frases,NULL,PennController,71,_Trial_,Start,1737635677918,NULL
1737636280,c2a6e53f5f6a5ef01c86cf67ae5c669b,PennController,70,0,frases,NULL,Selector,classificacao,Selection,neutra,1737635684297,negativa;neutra;positiva
1737636280,c2a6e53f5f6a5ef01c86cf67ae5c669b,PennController,70,0,frases,NULL,PennController,71,_Trial_,End,1737635684298,NULL
1737636280,c2a6e53f5f6a5ef01c86cf67ae5c669b,PennController,71,0,frases,NULL,PennController,72,_Trial_,Start,1737635684299,NULL
1737636280,c2a6e53f5f6a5ef01c86cf67ae5c669b,PennController,71,0,frases,NULL,Selector,classificacao,Selection,negativa,1737635691432,negativa;neutra;positiva
1737636280,c2a6e53f5f6a5ef01c86cf67ae5c669b,PennController,71,0,frases,NULL,PennController,72,_Trial_,End,1737635691433,NULL
1737636280,c2a6e53f5f6a5ef01c86cf67ae5c669b,PennController,72,0,frases,NULL,PennController,73,_Trial_,Start,1737635691434,NULL
1737636280,c2a6e53f5f6a5ef01c86cf67ae5c669b,PennController,72,0,frases,NULL,Selector,classificacao,Selection,neutra,1737635697365,negativa;neutra;positiva
1737636280,c2a6e53f5f6a5ef01c86cf67ae5c669b,PennController,72,0,frases,NULL,PennController,73,_Trial_,End,1737635697367,NULL
1737636280,c2a6e53f5f6a5ef01c86cf67ae5c669b,PennController,73,0,frases,NULL,PennController,74,_Trial_,Start,1737635697369,NULL
1737636280,c2a6e53f5f6a5ef01c86cf67ae5c669b,PennController,73,0,frases,NULL,Selector,classificacao,Selection,neutra,1737635701597,negativa;neutra;positiva
1737636280,c2a6e53f5f6a5ef01c86cf67ae5c669b,PennController,73,0,frases,NULL,PennController,74,_Trial_,End,1737635701599,NULL
1737636280,c2a6e53f5f6a5ef01c86cf67ae5c669b,PennController,74,0,frases,NULL,PennController,75,_Trial_,Start,1737635701600,NULL
1737636280,c2a6e53f5f6a5ef01c86cf67ae5c669b,PennController,74,0,frases,NULL,Selector,classificacao,Selection,positiva,1737635705709,negativa;neutra;positiva
1737636280,c2a6e53f5f6a5ef01c86cf67ae5c669b,PennController,74,0,frases,NULL,PennController,75,_Trial_,End,1737635705710,NULL
1737636280,c2a6e53f5f6a5ef01c86cf67ae5c669b,PennController,75,0,frases,NULL,PennController,76,_Trial_,Start,1737635705711,NULL
1737636280,c2a6e53f5f6a5ef01c86cf67ae5c669b,PennController,75,0,frases,NULL,Selector,classificacao,Selection,neutra,1737635708338,negativa;neutra;positiva
1737636280,c2a6e53f5f6a5ef01c86cf67ae5c669b,PennController,75,0,frases,NULL,PennController,76,_Trial_,End,1737635708338,NULL
1737636280,c2a6e53f5f6a5ef01c86cf67ae5c669b,PennController,76,0,frases,NULL,PennController,77,_Trial_,Start,1737635708339,NULL
1737636280,c2a6e53f5f6a5ef01c86cf67ae5c669b,PennController,76,0,frases,NULL,Selector,classificacao,Selection,negativa,1737635716575,negativa;neutra;positiva
1737636280,c2a6e53f5f6a5ef01c86cf67ae5c669b,PennController,76,0,frases,NULL,PennController,77,_Trial_,End,1737635716577,NULL
1737636280,c2a6e53f5f6a5ef01c86cf67ae5c669b,PennController,77,0,frases,NULL,PennController,78,_Trial_,Start,1737635716578,NULL
1737636280,c2a6e53f5f6a5ef01c86cf67ae5c669b,PennController,77,0,frases,NULL,Selector,classificacao,Selection,positiva,1737635720690,negativa;neutra;positiva
1737636280,c2a6e53f5f6a5ef01c86cf67ae5c669b,PennController,77,0,frases,NULL,PennController,78,_Trial_,End,1737635720691,NULL
1737636280,c2a6e53f5f6a5ef01c86cf67ae5c669b,PennController,78,0,frases,NULL,PennController,79,_Trial_,Start,1737635720692,NULL
1737636280,c2a6e53f5f6a5ef01c86cf67ae5c669b,PennController,78,0,frases,NULL,Selector,classificacao,Selection,negativa,1737635725631,negativa;neutra;positiva
1737636280,c2a6e53f5f6a5ef01c86cf67ae5c669b,PennController,78,0,frases,NULL,PennController,79,_Trial_,End,1737635725632,NULL
1737636280,c2a6e53f5f6a5ef01c86cf67ae5c669b,PennController,79,0,frases,NULL,PennController,80,_Trial_,Start,1737635725634,NULL
1737636280,c2a6e53f5f6a5ef01c86cf67ae5c669b,PennController,79,0,frases,NULL,Selector,classificacao,Selection,neutra,1737635818577,negativa;neutra;positiva
1737636280,c2a6e53f5f6a5ef01c86cf67ae5c669b,PennController,79,0,frases,NULL,PennController,80,_Trial_,End,1737635818577,NULL
1737636280,c2a6e53f5f6a5ef01c86cf67ae5c669b,PennController,80,0,frases,NULL,PennController,81,_Trial_,Start,1737635818579,NULL
1737636280,c2a6e53f5f6a5ef01c86cf67ae5c669b,PennController,80,0,frases,NULL,Selector,classificacao,Selection,neutra,1737635820005,negativa;neutra;positiva
1737636280,c2a6e53f5f6a5ef01c86cf67ae5c669b,PennController,80,0,frases,NULL,PennController,81,_Trial_,End,1737635820006,NULL
1737636280,c2a6e53f5f6a5ef01c86cf67ae5c669b,PennController,81,0,frases,NULL,PennController,82,_Trial_,Start,1737635820006,NULL
1737636280,c2a6e53f5f6a5ef01c86cf67ae5c669b,PennController,81,0,frases,NULL,Selector,classificacao,Selection,neutra,1737635826787,negativa;neutra;positiva
1737636280,c2a6e53f5f6a5ef01c86cf67ae5c669b,PennController,81,0,frases,NULL,PennController,82,_Trial_,End,1737635826788,NULL
1737636280,c2a6e53f5f6a5ef01c86cf67ae5c669b,PennController,82,0,frases,NULL,PennController,83,_Trial_,Start,1737635826789,NULL
1737636280,c2a6e53f5f6a5ef01c86cf67ae5c669b,PennController,82,0,frases,NULL,Selector,classificacao,Selection,negativa,1737635831783,negativa;neutra;positiva
1737636280,c2a6e53f5f6a5ef01c86cf67ae5c669b,PennController,82,0,frases,NULL,PennController,83,_Trial_,End,1737635831784,NULL
1737636280,c2a6e53f5f6a5ef01c86cf67ae5c669b,PennController,83,0,frases,NULL,PennController,84,_Trial_,Start,1737635831785,NULL
1737636280,c2a6e53f5f6a5ef01c86cf67ae5c669b,PennController,83,0,frases,NULL,Selector,classificacao,Selection,neutra,1737635838340,negativa;neutra;positiva
1737636280,c2a6e53f5f6a5ef01c86cf67ae5c669b,PennController,83,0,frases,NULL,PennController,84,_Trial_,End,1737635838341,NULL
1737636280,c2a6e53f5f6a5ef01c86cf67ae5c669b,PennController,84,0,frases,NULL,PennController,85,_Trial_,Start,1737635838344,NULL
1737636280,c2a6e53f5f6a5ef01c86cf67ae5c669b,PennController,84,0,frases,NULL,Selector,classificacao,Selection,positiva,1737635844247,negativa;neutra;positiva
1737636280,c2a6e53f5f6a5ef01c86cf67ae5c669b,PennController,84,0,frases,NULL,PennController,85,_Trial_,End,1737635844247,NULL
1737636280,c2a6e53f5f6a5ef01c86cf67ae5c669b,PennController,85,0,frases,NULL,PennController,86,_Trial_,Start,1737635844248,NULL
1737636280,c2a6e53f5f6a5ef01c86cf67ae5c669b,PennController,85,0,frases,NULL,Selector,classificacao,Selection,neutra,1737635874547,negativa;neutra;positiva
1737636280,c2a6e53f5f6a5ef01c86cf67ae5c669b,PennController,85,0,frases,NULL,PennController,86,_Trial_,End,1737635874548,NULL
1737636280,c2a6e53f5f6a5ef01c86cf67ae5c669b,PennController,86,0,frases,NULL,PennController,87,_Trial_,Start,1737635874549,NULL
1737636280,c2a6e53f5f6a5ef01c86cf67ae5c669b,PennController,86,0,frases,NULL,Selector,classificacao,Selection,negativa,1737635878687,negativa;neutra;positiva
1737636280,c2a6e53f5f6a5ef01c86cf67ae5c669b,PennController,86,0,frases,NULL,PennController,87,_Trial_,End,1737635878688,NULL
1737636280,c2a6e53f5f6a5ef01c86cf67ae5c669b,PennController,87,0,frases,NULL,PennController,88,_Trial_,Start,1737635878689,NULL
1737636280,c2a6e53f5f6a5ef01c86cf67ae5c669b,PennController,87,0,frases,NULL,Selector,classificacao,Selection,negativa,1737635882675,negativa;neutra;positiva
1737636280,c2a6e53f5f6a5ef01c86cf67ae5c669b,PennController,87,0,frases,NULL,PennController,88,_Trial_,End,1737635882677,NULL
1737636280,c2a6e53f5f6a5ef01c86cf67ae5c669b,PennController,88,0,frases,NULL,PennController,89,_Trial_,Start,1737635882678,NULL
1737636280,c2a6e53f5f6a5ef01c86cf67ae5c669b,PennController,88,0,frases,NULL,Selector,classificacao,Selection,neutra,1737635885216,negativa;neutra;positiva
1737636280,c2a6e53f5f6a5ef01c86cf67ae5c669b,PennController,88,0,frases,NULL,PennController,89,_Trial_,End,1737635885217,NULL
1737636280,c2a6e53f5f6a5ef01c86cf67ae5c669b,PennController,89,0,frases,NULL,PennController,90,_Trial_,Start,1737635885218,NULL
1737636280,c2a6e53f5f6a5ef01c86cf67ae5c669b,PennController,89,0,frases,NULL,Selector,classificacao,Selection,negativa,1737635891203,negativa;neutra;positiva
1737636280,c2a6e53f5f6a5ef01c86cf67ae5c669b,PennController,89,0,frases,NULL,PennController,90,_Trial_,End,1737635891204,NULL
1737636280,c2a6e53f5f6a5ef01c86cf67ae5c669b,PennController,90,0,frases,NULL,PennController,91,_Trial_,Start,1737635891205,NULL
1737636280,c2a6e53f5f6a5ef01c86cf67ae5c669b,PennController,90,0,frases,NULL,Selector,classificacao,Selection,negativa,1737635897567,negativa;neutra;positiva
1737636280,c2a6e53f5f6a5ef01c86cf67ae5c669b,PennController,90,0,frases,NULL,PennController,91,_Trial_,End,1737635897569,NULL
1737636280,c2a6e53f5f6a5ef01c86cf67ae5c669b,PennController,91,0,frases,NULL,PennController,92,_Trial_,Start,1737635897571,NULL
1737636280,c2a6e53f5f6a5ef01c86cf67ae5c669b,PennController,91,0,frases,NULL,Selector,classificacao,Selection,negativa,1737635904003,negativa;neutra;positiva
1737636280,c2a6e53f5f6a5ef01c86cf67ae5c669b,PennController,91,0,frases,NULL,PennController,92,_Trial_,End,1737635904004,NULL
1737636280,c2a6e53f5f6a5ef01c86cf67ae5c669b,PennController,92,0,frases,NULL,PennController,93,_Trial_,Start,1737635904006,NULL
1737636280,c2a6e53f5f6a5ef01c86cf67ae5c669b,PennController,92,0,frases,NULL,Selector,classificacao,Selection,negativa,1737635939343,negativa;neutra;positiva
1737636280,c2a6e53f5f6a5ef01c86cf67ae5c669b,PennController,92,0,frases,NULL,PennController,93,_Trial_,End,1737635939344,NULL
1737636280,c2a6e53f5f6a5ef01c86cf67ae5c669b,PennController,93,0,frases,NULL,PennController,94,_Trial_,Start,1737635939345,NULL
1737636280,c2a6e53f5f6a5ef01c86cf67ae5c669b,PennController,93,0,frases,NULL,Selector,classificacao,Selection,neutra,1737635956256,negativa;neutra;positiva
1737636280,c2a6e53f5f6a5ef01c86cf67ae5c669b,PennController,93,0,frases,NULL,PennController,94,_Trial_,End,1737635956258,NULL
1737636280,c2a6e53f5f6a5ef01c86cf67ae5c669b,PennController,94,0,frases,NULL,PennController,95,_Trial_,Start,1737635956259,NULL
1737636280,c2a6e53f5f6a5ef01c86cf67ae5c669b,PennController,94,0,frases,NULL,Selector,classificacao,Selection,neutra,1737635959406,negativa;neutra;positiva
1737636280,c2a6e53f5f6a5ef01c86cf67ae5c669b,PennController,94,0,frases,NULL,PennController,95,_Trial_,End,1737635959406,NULL
1737636280,c2a6e53f5f6a5ef01c86cf67ae5c669b,PennController,95,0,frases,NULL,PennController,96,_Trial_,Start,1737635959407,NULL
1737636280,c2a6e53f5f6a5ef01c86cf67ae5c669b,PennController,95,0,frases,NULL,Selector,classificacao,Selection,neutra,1737635970074,negativa;neutra;positiva
1737636280,c2a6e53f5f6a5ef01c86cf67ae5c669b,PennController,95,0,frases,NULL,PennController,96,_Trial_,End,1737635970076,NULL
1737636280,c2a6e53f5f6a5ef01c86cf67ae5c669b,PennController,96,0,frases,NULL,PennController,97,_Trial_,Start,1737635970077,NULL
1737636280,c2a6e53f5f6a5ef01c86cf67ae5c669b,PennController,96,0,frases,NULL,Selector,classificacao,Selection,neutra,1737635978750,negativa;neutra;positiva
1737636280,c2a6e53f5f6a5ef01c86cf67ae5c669b,PennController,96,0,frases,NULL,PennController,97,_Trial_,End,1737635978751,NULL
1737636280,c2a6e53f5f6a5ef01c86cf67ae5c669b,PennController,97,0,frases,NULL,PennController,98,_Trial_,Start,1737635978752,NULL
1737636280,c2a6e53f5f6a5ef01c86cf67ae5c669b,PennController,97,0,frases,NULL,Selector,classificacao,Selection,neutra,1737635983150,negativa;neutra;positiva
1737636280,c2a6e53f5f6a5ef01c86cf67ae5c669b,PennController,97,0,frases,NULL,PennController,98,_Trial_,End,1737635983152,NULL
1737636280,c2a6e53f5f6a5ef01c86cf67ae5c669b,PennController,98,0,frases,NULL,PennController,99,_Trial_,Start,1737635983153,NULL
1737636280,c2a6e53f5f6a5ef01c86cf67ae5c669b,PennController,98,0,frases,NULL,Selector,classificacao,Selection,neutra,1737635995602,negativa;neutra;positiva
1737636280,c2a6e53f5f6a5ef01c86cf67ae5c669b,PennController,98,0,frases,NULL,PennController,99,_Trial_,End,1737635995604,NULL
1737636280,c2a6e53f5f6a5ef01c86cf67ae5c669b,PennController,99,0,frases,NULL,PennController,100,_Trial_,Start,1737635995605,NULL
1737636280,c2a6e53f5f6a5ef01c86cf67ae5c669b,PennController,99,0,frases,NULL,Selector,classificacao,Selection,neutra,1737636014108,negativa;neutra;positiva
1737636280,c2a6e53f5f6a5ef01c86cf67ae5c669b,PennController,99,0,frases,NULL,PennController,100,_Trial_,End,1737636014110,NULL
1737636280,c2a6e53f5f6a5ef01c86cf67ae5c669b,PennController,100,0,frases,NULL,PennController,101,_Trial_,Start,1737636014111,NULL
1737636280,c2a6e53f5f6a5ef01c86cf67ae5c669b,PennController,100,0,frases,NULL,Selector,classificacao,Selection,neutra,1737636017918,negativa;neutra;positiva
1737636280,c2a6e53f5f6a5ef01c86cf67ae5c669b,PennController,100,0,frases,NULL,PennController,101,_Trial_,End,1737636017919,NULL
1737636280,c2a6e53f5f6a5ef01c86cf67ae5c669b,PennController,101,0,frases,NULL,PennController,102,_Trial_,Start,1737636017920,NULL
1737636280,c2a6e53f5f6a5ef01c86cf67ae5c669b,PennController,101,0,frases,NULL,Selector,classificacao,Selection,neutra,1737636021949,negativa;neutra;positiva
1737636280,c2a6e53f5f6a5ef01c86cf67ae5c669b,PennController,101,0,frases,NULL,PennController,102,_Trial_,End,1737636021949,NULL
1737636280,c2a6e53f5f6a5ef01c86cf67ae5c669b,PennController,102,0,frases,NULL,PennController,103,_Trial_,Start,1737636021950,NULL
1737636280,c2a6e53f5f6a5ef01c86cf67ae5c669b,PennController,102,0,frases,NULL,Selector,classificacao,Selection,neutra,1737636024253,negativa;neutra;positiva
1737636280,c2a6e53f5f6a5ef01c86cf67ae5c669b,PennController,102,0,frases,NULL,PennController,103,_Trial_,End,1737636024254,NULL
1737636280,c2a6e53f5f6a5ef01c86cf67ae5c669b,PennController,103,0,frases,NULL,PennController,104,_Trial_,Start,1737636024255,NULL
1737636280,c2a6e53f5f6a5ef01c86cf67ae5c669b,PennController,103,0,frases,NULL,Selector,classificacao,Selection,neutra,1737636028521,negativa;neutra;positiva
1737636280,c2a6e53f5f6a5ef01c86cf67ae5c669b,PennController,103,0,frases,NULL,PennController,104,_Trial_,End,1737636028522,NULL
1737636280,c2a6e53f5f6a5ef01c86cf67ae5c669b,PennController,104,0,frases,NULL,PennController,105,_Trial_,Start,1737636028523,NULL
1737636280,c2a6e53f5f6a5ef01c86cf67ae5c669b,PennController,104,0,frases,NULL,Selector,classificacao,Selection,neutra,1737636032680,negativa;neutra;positiva
1737636280,c2a6e53f5f6a5ef01c86cf67ae5c669b,PennController,104,0,frases,NULL,PennController,105,_Trial_,End,1737636032680,NULL
1737636280,c2a6e53f5f6a5ef01c86cf67ae5c669b,PennController,105,0,frases,NULL,PennController,106,_Trial_,Start,1737636032681,NULL
1737636280,c2a6e53f5f6a5ef01c86cf67ae5c669b,PennController,105,0,frases,NULL,Selector,classificacao,Selection,neutra,1737636034712,negativa;neutra;positiva
1737636280,c2a6e53f5f6a5ef01c86cf67ae5c669b,PennController,105,0,frases,NULL,PennController,106,_Trial_,End,1737636034712,NULL
1737636280,c2a6e53f5f6a5ef01c86cf67ae5c669b,PennController,106,0,frases,NULL,PennController,107,_Trial_,Start,1737636034713,NULL
1737636280,c2a6e53f5f6a5ef01c86cf67ae5c669b,PennController,106,0,frases,NULL,Selector,classificacao,Selection,neutra,1737636041934,negativa;neutra;positiva
1737636280,c2a6e53f5f6a5ef01c86cf67ae5c669b,PennController,106,0,frases,NULL,PennController,107,_Trial_,End,1737636041936,NULL
1737636280,c2a6e53f5f6a5ef01c86cf67ae5c669b,PennController,107,0,frases,NULL,PennController,108,_Trial_,Start,1737636041937,NULL
1737636280,c2a6e53f5f6a5ef01c86cf67ae5c669b,PennController,107,0,frases,NULL,Selector,classificacao,Selection,neutra,1737636049538,negativa;neutra;positiva
1737636280,c2a6e53f5f6a5ef01c86cf67ae5c669b,PennController,107,0,frases,NULL,PennController,108,_Trial_,End,1737636049539,NULL
1737636280,c2a6e53f5f6a5ef01c86cf67ae5c669b,PennController,108,0,frases,NULL,PennController,109,_Trial_,Start,1737636049540,NULL
1737636280,c2a6e53f5f6a5ef01c86cf67ae5c669b,PennController,108,0,frases,NULL,Selector,classificacao,Selection,neutra,1737636053274,negativa;neutra;positiva
1737636280,c2a6e53f5f6a5ef01c86cf67ae5c669b,PennController,108,0,frases,NULL,PennController,109,_Trial_,End,1737636053276,NULL
1737636280,c2a6e53f5f6a5ef01c86cf67ae5c669b,PennController,109,0,frases,NULL,PennController,110,_Trial_,Start,1737636053277,NULL
1737636280,c2a6e53f5f6a5ef01c86cf67ae5c669b,PennController,109,0,frases,NULL,Selector,classificacao,Selection,negativa,1737636055777,negativa;neutra;positiva
1737636280,c2a6e53f5f6a5ef01c86cf67ae5c669b,PennController,109,0,frases,NULL,PennController,110,_Trial_,End,1737636055778,NULL
1737636280,c2a6e53f5f6a5ef01c86cf67ae5c669b,PennController,110,0,frases,NULL,PennController,111,_Trial_,Start,1737636055779,NULL
1737636280,c2a6e53f5f6a5ef01c86cf67ae5c669b,PennController,110,0,frases,NULL,Selector,classificacao,Selection,negativa,1737636057986,negativa;neutra;positiva
1737636280,c2a6e53f5f6a5ef01c86cf67ae5c669b,PennController,110,0,frases,NULL,PennController,111,_Trial_,End,1737636057987,NULL
1737636280,c2a6e53f5f6a5ef01c86cf67ae5c669b,PennController,111,0,frases,NULL,PennController,112,_Trial_,Start,1737636057988,NULL
1737636280,c2a6e53f5f6a5ef01c86cf67ae5c669b,PennController,111,0,frases,NULL,Selector,classificacao,Selection,neutra,1737636060664,negativa;neutra;positiva
1737636280,c2a6e53f5f6a5ef01c86cf67ae5c669b,PennController,111,0,frases,NULL,PennController,112,_Trial_,End,1737636060665,NULL
1737636280,c2a6e53f5f6a5ef01c86cf67ae5c669b,PennController,112,0,frases,NULL,PennController,113,_Trial_,Start,1737636060667,NULL
1737636280,c2a6e53f5f6a5ef01c86cf67ae5c669b,PennController,112,0,frases,NULL,Selector,classificacao,Selection,neutra,1737636064723,negativa;neutra;positiva
1737636280,c2a6e53f5f6a5ef01c86cf67ae5c669b,PennController,112,0,frases,NULL,PennController,113,_Trial_,End,1737636064725,NULL
1737636280,c2a6e53f5f6a5ef01c86cf67ae5c669b,PennController,113,0,frases,NULL,PennController,114,_Trial_,Start,1737636064727,NULL
1737636280,c2a6e53f5f6a5ef01c86cf67ae5c669b,PennController,113,0,frases,NULL,Selector,classificacao,Selection,neutra,1737636071535,negativa;neutra;positiva
1737636280,c2a6e53f5f6a5ef01c86cf67ae5c669b,PennController,113,0,frases,NULL,PennController,114,_Trial_,End,1737636071535,NULL
1737636280,c2a6e53f5f6a5ef01c86cf67ae5c669b,PennController,114,0,frases,NULL,PennController,115,_Trial_,Start,1737636071536,NULL
1737636280,c2a6e53f5f6a5ef01c86cf67ae5c669b,PennController,114,0,frases,NULL,Selector,classificacao,Selection,negativa,1737636076056,negativa;neutra;positiva
1737636280,c2a6e53f5f6a5ef01c86cf67ae5c669b,PennController,114,0,frases,NULL,PennController,115,_Trial_,End,1737636076057,NULL
1737636280,c2a6e53f5f6a5ef01c86cf67ae5c669b,PennController,115,0,frases,NULL,PennController,116,_Trial_,Start,1737636076058,NULL
1737636280,c2a6e53f5f6a5ef01c86cf67ae5c669b,PennController,115,0,frases,NULL,Selector,classificacao,Selection,neutra,1737636079716,negativa;neutra;positiva
1737636280,c2a6e53f5f6a5ef01c86cf67ae5c669b,PennController,115,0,frases,NULL,PennController,116,_Trial_,End,1737636079717,NULL
1737636280,c2a6e53f5f6a5ef01c86cf67ae5c669b,PennController,116,0,frases,NULL,PennController,117,_Trial_,Start,1737636079718,NULL
1737636280,c2a6e53f5f6a5ef01c86cf67ae5c669b,PennController,116,0,frases,NULL,Selector,classificacao,Selection,neutra,1737636083773,negativa;neutra;positiva
1737636280,c2a6e53f5f6a5ef01c86cf67ae5c669b,PennController,116,0,frases,NULL,PennController,117,_Trial_,End,1737636083774,NULL
1737636280,c2a6e53f5f6a5ef01c86cf67ae5c669b,PennController,117,0,frases,NULL,PennController,118,_Trial_,Start,1737636083775,NULL
1737636280,c2a6e53f5f6a5ef01c86cf67ae5c669b,PennController,117,0,frases,NULL,Selector,classificacao,Selection,positiva,1737636086936,negativa;neutra;positiva
1737636280,c2a6e53f5f6a5ef01c86cf67ae5c669b,PennController,117,0,frases,NULL,PennController,118,_Trial_,End,1737636086937,NULL
1737636280,c2a6e53f5f6a5ef01c86cf67ae5c669b,PennController,118,0,frases,NULL,PennController,119,_Trial_,Start,1737636086937,NULL
1737636280,c2a6e53f5f6a5ef01c86cf67ae5c669b,PennController,118,0,frases,NULL,Selector,classificacao,Selection,neutra,1737636093661,negativa;neutra;positiva
1737636280,c2a6e53f5f6a5ef01c86cf67ae5c669b,PennController,118,0,frases,NULL,PennController,119,_Trial_,End,1737636093662,NULL
1737636280,c2a6e53f5f6a5ef01c86cf67ae5c669b,PennController,119,0,frases,NULL,PennController,120,_Trial_,Start,1737636093663,NULL
1737636280,c2a6e53f5f6a5ef01c86cf67ae5c669b,PennController,119,0,frases,NULL,Selector,classificacao,Selection,positiva,1737636098457,negativa;neutra;positiva
1737636280,c2a6e53f5f6a5ef01c86cf67ae5c669b,PennController,119,0,frases,NULL,PennController,120,_Trial_,End,1737636098457,NULL
1737636280,c2a6e53f5f6a5ef01c86cf67ae5c669b,PennController,120,0,frases,NULL,PennController,121,_Trial_,Start,1737636098458,NULL
1737636280,c2a6e53f5f6a5ef01c86cf67ae5c669b,PennController,120,0,frases,NULL,Selector,classificacao,Selection,neutra,1737636100730,negativa;neutra;positiva
1737636280,c2a6e53f5f6a5ef01c86cf67ae5c669b,PennController,120,0,frases,NULL,PennController,121,_Trial_,End,1737636100731,NULL
1737636280,c2a6e53f5f6a5ef01c86cf67ae5c669b,PennController,121,0,frases,NULL,PennController,122,_Trial_,Start,1737636100732,NULL
1737636280,c2a6e53f5f6a5ef01c86cf67ae5c669b,PennController,121,0,frases,NULL,Selector,classificacao,Selection,positiva,1737636102717,negativa;neutra;positiva
1737636280,c2a6e53f5f6a5ef01c86cf67ae5c669b,PennController,121,0,frases,NULL,PennController,122,_Trial_,End,1737636102718,NULL
1737636280,c2a6e53f5f6a5ef01c86cf67ae5c669b,PennController,122,0,frases,NULL,PennController,123,_Trial_,Start,1737636102719,NULL
1737636280,c2a6e53f5f6a5ef01c86cf67ae5c669b,PennController,122,0,frases,NULL,Selector,classificacao,Selection,positiva,1737636105937,negativa;neutra;positiva
1737636280,c2a6e53f5f6a5ef01c86cf67ae5c669b,PennController,122,0,frases,NULL,PennController,123,_Trial_,End,1737636105938,NULL
1737636280,c2a6e53f5f6a5ef01c86cf67ae5c669b,PennController,123,0,frases,NULL,PennController,124,_Trial_,Start,1737636105939,NULL
1737636280,c2a6e53f5f6a5ef01c86cf67ae5c669b,PennController,123,0,frases,NULL,Selector,classificacao,Selection,neutra,1737636111489,negativa;neutra;positiva
1737636280,c2a6e53f5f6a5ef01c86cf67ae5c669b,PennController,123,0,frases,NULL,PennController,124,_Trial_,End,1737636111490,NULL
1737636280,c2a6e53f5f6a5ef01c86cf67ae5c669b,PennController,124,0,frases,NULL,PennController,125,_Trial_,Start,1737636111492,NULL
1737636280,c2a6e53f5f6a5ef01c86cf67ae5c669b,PennController,124,0,frases,NULL,Selector,classificacao,Selection,neutra,1737636120819,negativa;neutra;positiva
1737636280,c2a6e53f5f6a5ef01c86cf67ae5c669b,PennController,124,0,frases,NULL,PennController,125,_Trial_,End,1737636120820,NULL
1737636280,c2a6e53f5f6a5ef01c86cf67ae5c669b,PennController,125,0,frases,NULL,PennController,126,_Trial_,Start,1737636120821,NULL
1737636280,c2a6e53f5f6a5ef01c86cf67ae5c669b,PennController,125,0,frases,NULL,Selector,classificacao,Selection,positiva,1737636124617,negativa;neutra;positiva
1737636280,c2a6e53f5f6a5ef01c86cf67ae5c669b,PennController,125,0,frases,NULL,PennController,126,_Trial_,End,1737636124618,NULL
1737636280,c2a6e53f5f6a5ef01c86cf67ae5c669b,PennController,126,0,frases,NULL,PennController,127,_Trial_,Start,1737636124619,NULL
1737636280,c2a6e53f5f6a5ef01c86cf67ae5c669b,PennController,126,0,frases,NULL,Selector,classificacao,Selection,negativa,1737636127889,negativa;neutra;positiva
1737636280,c2a6e53f5f6a5ef01c86cf67ae5c669b,PennController,126,0,frases,NULL,PennController,127,_Trial_,End,1737636127890,NULL
1737636280,c2a6e53f5f6a5ef01c86cf67ae5c669b,PennController,127,0,frases,NULL,PennController,128,_Trial_,Start,1737636127891,NULL
1737636280,c2a6e53f5f6a5ef01c86cf67ae5c669b,PennController,127,0,frases,NULL,Selector,classificacao,Selection,negativa,1737636133413,negativa;neutra;positiva
1737636280,c2a6e53f5f6a5ef01c86cf67ae5c669b,PennController,127,0,frases,NULL,PennController,128,_Trial_,End,1737636133415,NULL
1737636280,c2a6e53f5f6a5ef01c86cf67ae5c669b,PennController,128,0,frases,NULL,PennController,129,_Trial_,Start,1737636133415,NULL
1737636280,c2a6e53f5f6a5ef01c86cf67ae5c669b,PennController,128,0,frases,NULL,Selector,classificacao,Selection,negativa,1737636142218,negativa;neutra;positiva
1737636280,c2a6e53f5f6a5ef01c86cf67ae5c669b,PennController,128,0,frases,NULL,PennController,129,_Trial_,End,1737636142220,NULL
1737636280,c2a6e53f5f6a5ef01c86cf67ae5c669b,PennController,129,0,frases,NULL,PennController,130,_Trial_,Start,1737636142222,NULL
1737636280,c2a6e53f5f6a5ef01c86cf67ae5c669b,PennController,129,0,frases,NULL,Selector,classificacao,Selection,neutra,1737636144468,negativa;neutra;positiva
1737636280,c2a6e53f5f6a5ef01c86cf67ae5c669b,PennController,129,0,frases,NULL,PennController,130,_Trial_,End,1737636144469,NULL
1737636280,c2a6e53f5f6a5ef01c86cf67ae5c669b,PennController,130,0,frases,NULL,PennController,131,_Trial_,Start,1737636144470,NULL
1737636280,c2a6e53f5f6a5ef01c86cf67ae5c669b,PennController,130,0,frases,NULL,Selector,classificacao,Selection,negativa,1737636152564,negativa;neutra;positiva
1737636280,c2a6e53f5f6a5ef01c86cf67ae5c669b,PennController,130,0,frases,NULL,PennController,131,_Trial_,End,1737636152565,NULL
1737636280,c2a6e53f5f6a5ef01c86cf67ae5c669b,PennController,131,0,frases,NULL,PennController,132,_Trial_,Start,1737636152566,NULL
1737636280,c2a6e53f5f6a5ef01c86cf67ae5c669b,PennController,131,0,frases,NULL,Selector,classificacao,Selection,neutra,1737636154781,negativa;neutra;positiva
1737636280,c2a6e53f5f6a5ef01c86cf67ae5c669b,PennController,131,0,frases,NULL,PennController,132,_Trial_,End,1737636154782,NULL
1737636280,c2a6e53f5f6a5ef01c86cf67ae5c669b,PennController,132,0,frases,NULL,PennController,133,_Trial_,Start,1737636154783,NULL
1737636280,c2a6e53f5f6a5ef01c86cf67ae5c669b,PennController,132,0,frases,NULL,Selector,classificacao,Selection,neutra,1737636160144,negativa;neutra;positiva
1737636280,c2a6e53f5f6a5ef01c86cf67ae5c669b,PennController,132,0,frases,NULL,PennController,133,_Trial_,End,1737636160145,NULL
1737636280,c2a6e53f5f6a5ef01c86cf67ae5c669b,PennController,133,0,frases,NULL,PennController,134,_Trial_,Start,1737636160146,NULL
1737636280,c2a6e53f5f6a5ef01c86cf67ae5c669b,PennController,133,0,frases,NULL,Selector,classificacao,Selection,neutra,1737636164921,negativa;neutra;positiva
1737636280,c2a6e53f5f6a5ef01c86cf67ae5c669b,PennController,133,0,frases,NULL,PennController,134,_Trial_,End,1737636164922,NULL
1737636280,c2a6e53f5f6a5ef01c86cf67ae5c669b,PennController,134,0,frases,NULL,PennController,135,_Trial_,Start,1737636164924,NULL
1737636280,c2a6e53f5f6a5ef01c86cf67ae5c669b,PennController,134,0,frases,NULL,Selector,classificacao,Selection,neutra,1737636169678,negativa;neutra;positiva
1737636280,c2a6e53f5f6a5ef01c86cf67ae5c669b,PennController,134,0,frases,NULL,PennController,135,_Trial_,End,1737636169679,NULL
1737636280,c2a6e53f5f6a5ef01c86cf67ae5c669b,PennController,135,0,frases,NULL,PennController,136,_Trial_,Start,1737636169680,NULL
1737636280,c2a6e53f5f6a5ef01c86cf67ae5c669b,PennController,135,0,frases,NULL,Selector,classificacao,Selection,neutra,1737636173476,negativa;neutra;positiva
1737636280,c2a6e53f5f6a5ef01c86cf67ae5c669b,PennController,135,0,frases,NULL,PennController,136,_Trial_,End,1737636173476,NULL
1737636280,c2a6e53f5f6a5ef01c86cf67ae5c669b,PennController,136,0,frases,NULL,PennController,137,_Trial_,Start,1737636173477,NULL
1737636280,c2a6e53f5f6a5ef01c86cf67ae5c669b,PennController,136,0,frases,NULL,Selector,classificacao,Selection,neutra,1737636177816,negativa;neutra;positiva
1737636280,c2a6e53f5f6a5ef01c86cf67ae5c669b,PennController,136,0,frases,NULL,PennController,137,_Trial_,End,1737636177816,NULL
1737636280,c2a6e53f5f6a5ef01c86cf67ae5c669b,PennController,137,0,frases,NULL,PennController,138,_Trial_,Start,1737636177817,NULL
1737636280,c2a6e53f5f6a5ef01c86cf67ae5c669b,PennController,137,0,frases,NULL,Selector,classificacao,Selection,negativa,1737636182980,negativa;neutra;positiva
1737636280,c2a6e53f5f6a5ef01c86cf67ae5c669b,PennController,137,0,frases,NULL,PennController,138,_Trial_,End,1737636182981,NULL
1737636280,c2a6e53f5f6a5ef01c86cf67ae5c669b,PennController,138,0,frases,NULL,PennController,139,_Trial_,Start,1737636182981,NULL
1737636280,c2a6e53f5f6a5ef01c86cf67ae5c669b,PennController,138,0,frases,NULL,Selector,classificacao,Selection,neutra,1737636185476,negativa;neutra;positiva
1737636280,c2a6e53f5f6a5ef01c86cf67ae5c669b,PennController,138,0,frases,NULL,PennController,139,_Trial_,End,1737636185477,NULL
1737636280,c2a6e53f5f6a5ef01c86cf67ae5c669b,PennController,139,0,frases,NULL,PennController,140,_Trial_,Start,1737636185478,NULL
1737636280,c2a6e53f5f6a5ef01c86cf67ae5c669b,PennController,139,0,frases,NULL,Selector,classificacao,Selection,neutra,1737636188327,negativa;neutra;positiva
1737636280,c2a6e53f5f6a5ef01c86cf67ae5c669b,PennController,139,0,frases,NULL,PennController,140,_Trial_,End,1737636188328,NULL
1737636280,c2a6e53f5f6a5ef01c86cf67ae5c669b,PennController,140,0,frases,NULL,PennController,141,_Trial_,Start,1737636188329,NULL
1737636280,c2a6e53f5f6a5ef01c86cf67ae5c669b,PennController,140,0,frases,NULL,Selector,classificacao,Selection,neutra,1737636193550,negativa;neutra;positiva
1737636280,c2a6e53f5f6a5ef01c86cf67ae5c669b,PennController,140,0,frases,NULL,PennController,141,_Trial_,End,1737636193551,NULL
1737636280,c2a6e53f5f6a5ef01c86cf67ae5c669b,PennController,141,0,frases,NULL,PennController,142,_Trial_,Start,1737636193553,NULL
1737636280,c2a6e53f5f6a5ef01c86cf67ae5c669b,PennController,141,0,frases,NULL,Selector,classificacao,Selection,neutra,1737636196276,negativa;neutra;positiva
1737636280,c2a6e53f5f6a5ef01c86cf67ae5c669b,PennController,141,0,frases,NULL,PennController,142,_Trial_,End,1737636196277,NULL
1737636280,c2a6e53f5f6a5ef01c86cf67ae5c669b,PennController,142,0,frases,NULL,PennController,143,_Trial_,Start,1737636196278,NULL
1737636280,c2a6e53f5f6a5ef01c86cf67ae5c669b,PennController,142,0,frases,NULL,Selector,classificacao,Selection,neutra,1737636201310,negativa;neutra;positiva
1737636280,c2a6e53f5f6a5ef01c86cf67ae5c669b,PennController,142,0,frases,NULL,PennController,143,_Trial_,End,1737636201311,NULL
1737636280,c2a6e53f5f6a5ef01c86cf67ae5c669b,PennController,143,0,frases,NULL,PennController,144,_Trial_,Start,1737636201312,NULL
1737636280,c2a6e53f5f6a5ef01c86cf67ae5c669b,PennController,143,0,frases,NULL,Selector,classificacao,Selection,neutra,1737636203224,negativa;neutra;positiva
1737636280,c2a6e53f5f6a5ef01c86cf67ae5c669b,PennController,143,0,frases,NULL,PennController,144,_Trial_,End,1737636203226,NULL
1737636280,c2a6e53f5f6a5ef01c86cf67ae5c669b,PennController,144,0,frases,NULL,PennController,145,_Trial_,Start,1737636203227,NULL
1737636280,c2a6e53f5f6a5ef01c86cf67ae5c669b,PennController,144,0,frases,NULL,Selector,classificacao,Selection,neutra,1737636204635,negativa;neutra;positiva
1737636280,c2a6e53f5f6a5ef01c86cf67ae5c669b,PennController,144,0,frases,NULL,PennController,145,_Trial_,End,1737636204636,NULL
1737636280,c2a6e53f5f6a5ef01c86cf67ae5c669b,PennController,145,0,frases,NULL,PennController,146,_Trial_,Start,1737636204637,NULL
1737636280,c2a6e53f5f6a5ef01c86cf67ae5c669b,PennController,145,0,frases,NULL,Selector,classificacao,Selection,positiva,1737636223992,negativa;neutra;positiva
1737636280,c2a6e53f5f6a5ef01c86cf67ae5c669b,PennController,145,0,frases,NULL,PennController,146,_Trial_,End,1737636223992,NULL
1737636280,c2a6e53f5f6a5ef01c86cf67ae5c669b,PennController,146,0,frases,NULL,PennController,147,_Trial_,Start,1737636223993,NULL
1737636280,c2a6e53f5f6a5ef01c86cf67ae5c669b,PennController,146,0,frases,NULL,Selector,classificacao,Selection,negativa,1737636228720,negativa;neutra;positiva
1737636280,c2a6e53f5f6a5ef01c86cf67ae5c669b,PennController,146,0,frases,NULL,PennController,147,_Trial_,End,1737636228720,NULL
1737636280,c2a6e53f5f6a5ef01c86cf67ae5c669b,PennController,147,0,frases,NULL,PennController,148,_Trial_,Start,1737636228721,NULL
1737636280,c2a6e53f5f6a5ef01c86cf67ae5c669b,PennController,147,0,frases,NULL,Selector,classificacao,Selection,negativa,1737636245384,negativa;neutra;positiva
1737636280,c2a6e53f5f6a5ef01c86cf67ae5c669b,PennController,147,0,frases,NULL,PennController,148,_Trial_,End,1737636245386,NULL
1737636280,c2a6e53f5f6a5ef01c86cf67ae5c669b,PennController,148,0,frases,NULL,PennController,149,_Trial_,Start,1737636245387,NULL
1737636280,c2a6e53f5f6a5ef01c86cf67ae5c669b,PennController,148,0,frases,NULL,Selector,classificacao,Selection,neutra,1737636257092,negativa;neutra;positiva
1737636280,c2a6e53f5f6a5ef01c86cf67ae5c669b,PennController,148,0,frases,NULL,PennController,149,_Trial_,End,1737636257093,NULL
1737636280,c2a6e53f5f6a5ef01c86cf67ae5c669b,PennController,149,0,frases,NULL,PennController,150,_Trial_,Start,1737636257095,NULL
1737636280,c2a6e53f5f6a5ef01c86cf67ae5c669b,PennController,149,0,frases,NULL,Selector,classificacao,Selection,positiva,1737636259970,negativa;neutra;positiva
1737636280,c2a6e53f5f6a5ef01c86cf67ae5c669b,PennController,149,0,frases,NULL,PennController,150,_Trial_,End,1737636259971,NULL
1737636280,c2a6e53f5f6a5ef01c86cf67ae5c669b,PennController,150,0,frases,NULL,PennController,151,_Trial_,Start,1737636259972,NULL
1737636280,c2a6e53f5f6a5ef01c86cf67ae5c669b,PennController,150,0,frases,NULL,Selector,classificacao,Selection,negativa,1737636264383,negativa;neutra;positiva
1737636280,c2a6e53f5f6a5ef01c86cf67ae5c669b,PennController,150,0,frases,NULL,PennController,151,_Trial_,End,1737636264384,NULL
1737636280,c2a6e53f5f6a5ef01c86cf67ae5c669b,PennController,151,0,frases,NULL,PennController,152,_Trial_,Start,1737636264385,NULL
1737636280,c2a6e53f5f6a5ef01c86cf67ae5c669b,PennController,151,0,frases,NULL,Selector,classificacao,Selection,neutra,1737636267798,negativa;neutra;positiva
1737636280,c2a6e53f5f6a5ef01c86cf67ae5c669b,PennController,151,0,frases,NULL,PennController,152,_Trial_,End,1737636267800,NULL
1737636280,c2a6e53f5f6a5ef01c86cf67ae5c669b,PennController,152,0,frases,NULL,PennController,153,_Trial_,Start,1737636267801,NULL
1737636280,c2a6e53f5f6a5ef01c86cf67ae5c669b,PennController,152,0,frases,NULL,Selector,classificacao,Selection,negativa,1737636270545,negativa;neutra;positiva
1737636280,c2a6e53f5f6a5ef01c86cf67ae5c669b,PennController,152,0,frases,NULL,PennController,153,_Trial_,End,1737636270546,NULL
1737636280,c2a6e53f5f6a5ef01c86cf67ae5c669b,PennController,153,0,frases,NULL,PennController,154,_Trial_,Start,1737636270547,NULL
1737636280,c2a6e53f5f6a5ef01c86cf67ae5c669b,PennController,153,0,frases,NULL,Selector,classificacao,Selection,neutra,1737636277409,negativa;neutra;positiva
1737636280,c2a6e53f5f6a5ef01c86cf67ae5c669b,PennController,153,0,frases,NULL,PennController,154,_Trial_,End,1737636277410,NULL
1737636280,c2a6e53f5f6a5ef01c86cf67ae5c669b,PennController,154,0,agradecimento,NULL,PennController,4,_Trial_,Start,1737636277411,NULL
1737636280,c2a6e53f5f6a5ef01c86cf67ae5c669b,PennController,154,0,agradecimento,NULL,PennController,4,_Trial_,End,1737636279991,NULL
#
# Results on Thu, 23 Jan 2025 14:29:07 GMT
# USER AGENT: Mozilla/5.0 (Windows NT 10.0; Win64; x64; rv:134.0) Gecko/20100101 Firefox/134.0
# Design number was non-random = 1
#
# Columns below this comment are as follows:
# 1. Results reception time.
# 2. MD5 hash of participant's IP address.
# 3. Controller name.
# 4. Order number of item.
# 5. Inner element number.
# 6. Label.
# 7. Latin Square Group.
# 8. PennElementType.
# 9. PennElementName.
# 10. Parameter.
# 11. Value.
# 12. EventTime.
# 13. Comments.
1737642547,bc2584302fffead698e1809107a60040,PennController,0,0,TCLE,NULL,PennController,0,_Trial_,Start,1737639474878,NULL
1737642547,bc2584302fffead698e1809107a60040,PennController,0,0,TCLE,NULL,PennController,0,_Trial_,End,1737639477481,NULL
1737642547,bc2584302fffead698e1809107a60040,PennController,3,0,instrucoes,NULL,PennController,3,_Trial_,Start,1737639477483,NULL
1737642547,bc2584302fffead698e1809107a60040,PennController,3,0,instrucoes,NULL,PennController,3,_Trial_,End,1737639478952,NULL
1737642547,bc2584302fffead698e1809107a60040,PennController,1,0,genero,NULL,PennController,1,_Trial_,Start,1737639478953,NULL
1737642547,bc2584302fffead698e1809107a60040,PennController,1,0,genero,NULL,DropDown,selecionaGenero,Selected,Masculino,1737639480832,0
1737642547,bc2584302fffead698e1809107a60040,PennController,1,0,genero,NULL,PennController,1,_Trial_,End,1737639481560,NULL
1737642547,bc2584302fffead698e1809107a60040,PennController,4,0,frases,NULL,PennController,5,_Trial_,Start,1737639481562,NULL
1737642547,bc2584302fffead698e1809107a60040,PennController,4,0,frases,NULL,Selector,classificacao,Selection,negativa,1737639556023,negativa;neutra;positiva
1737642547,bc2584302fffead698e1809107a60040,PennController,4,0,frases,NULL,PennController,5,_Trial_,End,1737639556025,NULL
1737642547,bc2584302fffead698e1809107a60040,PennController,5,0,frases,NULL,PennController,6,_Trial_,Start,1737639556028,NULL
1737642547,bc2584302fffead698e1809107a60040,PennController,5,0,frases,NULL,Selector,classificacao,Selection,positiva,1737639561854,negativa;neutra;positiva
1737642547,bc2584302fffead698e1809107a60040,PennController,5,0,frases,NULL,PennController,6,_Trial_,End,1737639561855,NULL
1737642547,bc2584302fffead698e1809107a60040,PennController,6,0,frases,NULL,PennController,7,_Trial_,Start,1737639561856,NULL
1737642547,bc2584302fffead698e1809107a60040,PennController,6,0,frases,NULL,Selector,classificacao,Selection,neutra,1737639563710,negativa;neutra;positiva
1737642547,bc2584302fffead698e1809107a60040,PennController,6,0,frases,NULL,PennController,7,_Trial_,End,1737639563712,NULL
1737642547,bc2584302fffead698e1809107a60040,PennController,7,0,frases,NULL,PennController,8,_Trial_,Start,1737639563713,NULL
1737642547,bc2584302fffead698e1809107a60040,PennController,7,0,frases,NULL,Selector,classificacao,Selection,positiva,1737639567295,negativa;neutra;positiva
1737642547,bc2584302fffead698e1809107a60040,PennController,7,0,frases,NULL,PennController,8,_Trial_,End,1737639567296,NULL
1737642547,bc2584302fffead698e1809107a60040,PennController,8,0,frases,NULL,PennController,9,_Trial_,Start,1737639567297,NULL
1737642547,bc2584302fffead698e1809107a60040,PennController,8,0,frases,NULL,Selector,classificacao,Selection,neutra,1737639576470,negativa;neutra;positiva
1737642547,bc2584302fffead698e1809107a60040,PennController,8,0,frases,NULL,PennController,9,_Trial_,End,1737639576472,NULL
1737642547,bc2584302fffead698e1809107a60040,PennController,9,0,frases,NULL,PennController,10,_Trial_,Start,1737639576473,NULL
1737642547,bc2584302fffead698e1809107a60040,PennController,9,0,frases,NULL,Selector,classificacao,Selection,negativa,1737639586893,negativa;neutra;positiva
1737642547,bc2584302fffead698e1809107a60040,PennController,9,0,frases,NULL,PennController,10,_Trial_,End,1737639586895,NULL
1737642547,bc2584302fffead698e1809107a60040,PennController,10,0,frases,NULL,PennController,11,_Trial_,Start,1737639586896,NULL
1737642547,bc2584302fffead698e1809107a60040,PennController,10,0,frases,NULL,Selector,classificacao,Selection,negativa,1737639589006,negativa;neutra;positiva
1737642547,bc2584302fffead698e1809107a60040,PennController,10,0,frases,NULL,PennController,11,_Trial_,End,1737639589007,NULL
1737642547,bc2584302fffead698e1809107a60040,PennController,11,0,frases,NULL,PennController,12,_Trial_,Start,1737639589009,NULL
1737642547,bc2584302fffead698e1809107a60040,PennController,11,0,frases,NULL,Selector,classificacao,Selection,positiva,1737641865733,negativa;neutra;positiva
1737642547,bc2584302fffead698e1809107a60040,PennController,11,0,frases,NULL,PennController,12,_Trial_,End,1737641865736,NULL
1737642547,bc2584302fffead698e1809107a60040,PennController,12,0,frases,NULL,PennController,13,_Trial_,Start,1737641865738,NULL
1737642547,bc2584302fffead698e1809107a60040,PennController,12,0,frases,NULL,Selector,classificacao,Selection,positiva,1737641867477,negativa;neutra;positiva
1737642547,bc2584302fffead698e1809107a60040,PennController,12,0,frases,NULL,PennController,13,_Trial_,End,1737641867478,NULL
1737642547,bc2584302fffead698e1809107a60040,PennController,13,0,frases,NULL,PennController,14,_Trial_,Start,1737641867479,NULL
1737642547,bc2584302fffead698e1809107a60040,PennController,13,0,frases,NULL,Selector,classificacao,Selection,positiva,1737641870246,negativa;neutra;positiva
1737642547,bc2584302fffead698e1809107a60040,PennController,13,0,frases,NULL,PennController,14,_Trial_,End,1737641870247,NULL
1737642547,bc2584302fffead698e1809107a60040,PennController,14,0,frases,NULL,PennController,15,_Trial_,Start,1737641870248,NULL
1737642547,bc2584302fffead698e1809107a60040,PennController,14,0,frases,NULL,Selector,classificacao,Selection,neutra,1737641874422,negativa;neutra;positiva
1737642547,bc2584302fffead698e1809107a60040,PennController,14,0,frases,NULL,PennController,15,_Trial_,End,1737641874423,NULL
1737642547,bc2584302fffead698e1809107a60040,PennController,15,0,frases,NULL,PennController,16,_Trial_,Start,1737641874423,NULL
1737642547,bc2584302fffead698e1809107a60040,PennController,15,0,frases,NULL,Selector,classificacao,Selection,negativa,1737641876446,negativa;neutra;positiva
1737642547,bc2584302fffead698e1809107a60040,PennController,15,0,frases,NULL,PennController,16,_Trial_,End,1737641876447,NULL
1737642547,bc2584302fffead698e1809107a60040,PennController,16,0,frases,NULL,PennController,17,_Trial_,Start,1737641876448,NULL
1737642547,bc2584302fffead698e1809107a60040,PennController,16,0,frases,NULL,Selector,classificacao,Selection,negativa,1737641881055,negativa;neutra;positiva
1737642547,bc2584302fffead698e1809107a60040,PennController,16,0,frases,NULL,PennController,17,_Trial_,End,1737641881056,NULL
1737642547,bc2584302fffead698e1809107a60040,PennController,17,0,frases,NULL,PennController,18,_Trial_,Start,1737641881057,NULL
1737642547,bc2584302fffead698e1809107a60040,PennController,17,0,frases,NULL,Selector,classificacao,Selection,positiva,1737641883213,negativa;neutra;positiva
1737642547,bc2584302fffead698e1809107a60040,PennController,17,0,frases,NULL,PennController,18,_Trial_,End,1737641883214,NULL
1737642547,bc2584302fffead698e1809107a60040,PennController,18,0,frases,NULL,PennController,19,_Trial_,Start,1737641883215,NULL
1737642547,bc2584302fffead698e1809107a60040,PennController,18,0,frases,NULL,Selector,classificacao,Selection,negativa,1737641885493,negativa;neutra;positiva
1737642547,bc2584302fffead698e1809107a60040,PennController,18,0,frases,NULL,PennController,19,_Trial_,End,1737641885495,NULL
1737642547,bc2584302fffead698e1809107a60040,PennController,19,0,frases,NULL,PennController,20,_Trial_,Start,1737641885495,NULL
1737642547,bc2584302fffead698e1809107a60040,PennController,19,0,frases,NULL,Selector,classificacao,Selection,negativa,1737641891103,negativa;neutra;positiva
1737642547,bc2584302fffead698e1809107a60040,PennController,19,0,frases,NULL,PennController,20,_Trial_,End,1737641891104,NULL
1737642547,bc2584302fffead698e1809107a60040,PennController,20,0,frases,NULL,PennController,21,_Trial_,Start,1737641891104,NULL
1737642547,bc2584302fffead698e1809107a60040,PennController,20,0,frases,NULL,Selector,classificacao,Selection,negativa,1737641897901,negativa;neutra;positiva
1737642547,bc2584302fffead698e1809107a60040,PennController,20,0,frases,NULL,PennController,21,_Trial_,End,1737641897902,NULL
1737642547,bc2584302fffead698e1809107a60040,PennController,21,0,frases,NULL,PennController,22,_Trial_,Start,1737641897903,NULL
1737642547,bc2584302fffead698e1809107a60040,PennController,21,0,frases,NULL,Selector,classificacao,Selection,positiva,1737641900934,negativa;neutra;positiva
1737642547,bc2584302fffead698e1809107a60040,PennController,21,0,frases,NULL,PennController,22,_Trial_,End,1737641900935,NULL
1737642547,bc2584302fffead698e1809107a60040,PennController,22,0,frases,NULL,PennController,23,_Trial_,Start,1737641900936,NULL
1737642547,bc2584302fffead698e1809107a60040,PennController,22,0,frases,NULL,Selector,classificacao,Selection,negativa,1737641907942,negativa;neutra;positiva
1737642547,bc2584302fffead698e1809107a60040,PennController,22,0,frases,NULL,PennController,23,_Trial_,End,1737641907943,NULL
1737642547,bc2584302fffead698e1809107a60040,PennController,23,0,frases,NULL,PennController,24,_Trial_,Start,1737641907944,NULL
1737642547,bc2584302fffead698e1809107a60040,PennController,23,0,frases,NULL,Selector,classificacao,Selection,positiva,1737641911318,negativa;neutra;positiva
1737642547,bc2584302fffead698e1809107a60040,PennController,23,0,frases,NULL,PennController,24,_Trial_,End,1737641911319,NULL
1737642547,bc2584302fffead698e1809107a60040,PennController,24,0,frases,NULL,PennController,25,_Trial_,Start,1737641911319,NULL
1737642547,bc2584302fffead698e1809107a60040,PennController,24,0,frases,NULL,Selector,classificacao,Selection,positiva,1737641915021,negativa;neutra;positiva
1737642547,bc2584302fffead698e1809107a60040,PennController,24,0,frases,NULL,PennController,25,_Trial_,End,1737641915022,NULL
1737642547,bc2584302fffead698e1809107a60040,PennController,25,0,frases,NULL,PennController,26,_Trial_,Start,1737641915023,NULL
1737642547,bc2584302fffead698e1809107a60040,PennController,25,0,frases,NULL,Selector,classificacao,Selection,negativa,1737641920513,negativa;neutra;positiva
1737642547,bc2584302fffead698e1809107a60040,PennController,25,0,frases,NULL,PennController,26,_Trial_,End,1737641920514,NULL
1737642547,bc2584302fffead698e1809107a60040,PennController,26,0,frases,NULL,PennController,27,_Trial_,Start,1737641920515,NULL
1737642547,bc2584302fffead698e1809107a60040,PennController,26,0,frases,NULL,Selector,classificacao,Selection,positiva,1737641926741,negativa;neutra;positiva
1737642547,bc2584302fffead698e1809107a60040,PennController,26,0,frases,NULL,PennController,27,_Trial_,End,1737641926742,NULL
1737642547,bc2584302fffead698e1809107a60040,PennController,27,0,frases,NULL,PennController,28,_Trial_,Start,1737641926743,NULL
1737642547,bc2584302fffead698e1809107a60040,PennController,27,0,frases,NULL,Selector,classificacao,Selection,positiva,1737641928765,negativa;neutra;positiva
1737642547,bc2584302fffead698e1809107a60040,PennController,27,0,frases,NULL,PennController,28,_Trial_,End,1737641928766,NULL
1737642547,bc2584302fffead698e1809107a60040,PennController,28,0,frases,NULL,PennController,29,_Trial_,Start,1737641928767,NULL
1737642547,bc2584302fffead698e1809107a60040,PennController,28,0,frases,NULL,Selector,classificacao,Selection,positiva,1737641933989,negativa;neutra;positiva
1737642547,bc2584302fffead698e1809107a60040,PennController,28,0,frases,NULL,PennController,29,_Trial_,End,1737641933990,NULL
1737642547,bc2584302fffead698e1809107a60040,PennController,29,0,frases,NULL,PennController,30,_Trial_,Start,1737641933990,NULL
1737642547,bc2584302fffead698e1809107a60040,PennController,29,0,frases,NULL,Selector,classificacao,Selection,positiva,1737641937165,negativa;neutra;positiva
1737642547,bc2584302fffead698e1809107a60040,PennController,29,0,frases,NULL,PennController,30,_Trial_,End,1737641937166,NULL
1737642547,bc2584302fffead698e1809107a60040,PennController,30,0,frases,NULL,PennController,31,_Trial_,Start,1737641937166,NULL
1737642547,bc2584302fffead698e1809107a60040,PennController,30,0,frases,NULL,Selector,classificacao,Selection,positiva,1737641938573,negativa;neutra;positiva
1737642547,bc2584302fffead698e1809107a60040,PennController,30,0,frases,NULL,PennController,31,_Trial_,End,1737641938574,NULL
1737642547,bc2584302fffead698e1809107a60040,PennController,31,0,frases,NULL,PennController,32,_Trial_,Start,1737641938574,NULL
1737642547,bc2584302fffead698e1809107a60040,PennController,31,0,frases,NULL,Selector,classificacao,Selection,positiva,1737641939990,negativa;neutra;positiva
1737642547,bc2584302fffead698e1809107a60040,PennController,31,0,frases,NULL,PennController,32,_Trial_,End,1737641939990,NULL
1737642547,bc2584302fffead698e1809107a60040,PennController,32,0,frases,NULL,PennController,33,_Trial_,Start,1737641939991,NULL
1737642547,bc2584302fffead698e1809107a60040,PennController,32,0,frases,NULL,Selector,classificacao,Selection,neutra,1737641944798,negativa;neutra;positiva
1737642547,bc2584302fffead698e1809107a60040,PennController,32,0,frases,NULL,PennController,33,_Trial_,End,1737641944799,NULL
1737642547,bc2584302fffead698e1809107a60040,PennController,33,0,frases,NULL,PennController,34,_Trial_,Start,1737641944800,NULL
1737642547,bc2584302fffead698e1809107a60040,PennController,33,0,frases,NULL,Selector,classificacao,Selection,negativa,1737641947845,negativa;neutra;positiva
1737642547,bc2584302fffead698e1809107a60040,PennController,33,0,frases,NULL,PennController,34,_Trial_,End,1737641947847,NULL
1737642547,bc2584302fffead698e1809107a60040,PennController,34,0,frases,NULL,PennController,35,_Trial_,Start,1737641947847,NULL
1737642547,bc2584302fffead698e1809107a60040,PennController,34,0,frases,NULL,Selector,classificacao,Selection,neutra,1737641954109,negativa;neutra;positiva
1737642547,bc2584302fffead698e1809107a60040,PennController,34,0,frases,NULL,PennController,35,_Trial_,End,1737641954110,NULL
1737642547,bc2584302fffead698e1809107a60040,PennController,35,0,frases,NULL,PennController,36,_Trial_,Start,1737641954111,NULL
1737642547,bc2584302fffead698e1809107a60040,PennController,35,0,frases,NULL,Selector,classificacao,Selection,positiva,1737641963853,negativa;neutra;positiva
1737642547,bc2584302fffead698e1809107a60040,PennController,35,0,frases,NULL,PennController,36,_Trial_,End,1737641963854,NULL
1737642547,bc2584302fffead698e1809107a60040,PennController,36,0,frases,NULL,PennController,37,_Trial_,Start,1737641963854,NULL
1737642547,bc2584302fffead698e1809107a60040,PennController,36,0,frases,NULL,Selector,classificacao,Selection,negativa,1737641966182,negativa;neutra;positiva
1737642547,bc2584302fffead698e1809107a60040,PennController,36,0,frases,NULL,PennController,37,_Trial_,End,1737641966183,NULL
1737642547,bc2584302fffead698e1809107a60040,PennController,37,0,frases,NULL,PennController,38,_Trial_,Start,1737641966184,NULL
1737642547,bc2584302fffead698e1809107a60040,PennController,37,0,frases,NULL,Selector,classificacao,Selection,neutra,1737641970926,negativa;neutra;positiva
1737642547,bc2584302fffead698e1809107a60040,PennController,37,0,frases,NULL,PennController,38,_Trial_,End,1737641970927,NULL
1737642547,bc2584302fffead698e1809107a60040,PennController,38,0,frases,NULL,PennController,39,_Trial_,Start,1737641970927,NULL
1737642547,bc2584302fffead698e1809107a60040,PennController,38,0,frases,NULL,Selector,classificacao,Selection,positiva,1737641972918,negativa;neutra;positiva
1737642547,bc2584302fffead698e1809107a60040,PennController,38,0,frases,NULL,PennController,39,_Trial_,End,1737641972919,NULL
1737642547,bc2584302fffead698e1809107a60040,PennController,39,0,frases,NULL,PennController,40,_Trial_,Start,1737641972919,NULL
1737642547,bc2584302fffead698e1809107a60040,PennController,39,0,frases,NULL,Selector,classificacao,Selection,neutra,1737641976973,negativa;neutra;positiva
1737642547,bc2584302fffead698e1809107a60040,PennController,39,0,frases,NULL,PennController,40,_Trial_,End,1737641976974,NULL
1737642547,bc2584302fffead698e1809107a60040,PennController,40,0,frases,NULL,PennController,41,_Trial_,Start,1737641976974,NULL
1737642547,bc2584302fffead698e1809107a60040,PennController,40,0,frases,NULL,Selector,classificacao,Selection,neutra,1737641984928,negativa;neutra;positiva
1737642547,bc2584302fffead698e1809107a60040,PennController,40,0,frases,NULL,PennController,41,_Trial_,End,1737641984928,NULL
1737642547,bc2584302fffead698e1809107a60040,PennController,41,0,frases,NULL,PennController,42,_Trial_,Start,1737641984929,NULL
1737642547,bc2584302fffead698e1809107a60040,PennController,41,0,frases,NULL,Selector,classificacao,Selection,positiva,1737641986854,negativa;neutra;positiva
1737642547,bc2584302fffead698e1809107a60040,PennController,41,0,frases,NULL,PennController,42,_Trial_,End,1737641986855,NULL
1737642547,bc2584302fffead698e1809107a60040,PennController,42,0,frases,NULL,PennController,43,_Trial_,Start,1737641986856,NULL
1737642547,bc2584302fffead698e1809107a60040,PennController,42,0,frases,NULL,Selector,classificacao,Selection,negativa,1737641991509,negativa;neutra;positiva
1737642547,bc2584302fffead698e1809107a60040,PennController,42,0,frases,NULL,PennController,43,_Trial_,End,1737641991510,NULL
1737642547,bc2584302fffead698e1809107a60040,PennController,43,0,frases,NULL,PennController,44,_Trial_,Start,1737641991510,NULL
1737642547,bc2584302fffead698e1809107a60040,PennController,43,0,frases,NULL,Selector,classificacao,Selection,positiva,1737641994181,negativa;neutra;positiva
1737642547,bc2584302fffead698e1809107a60040,PennController,43,0,frases,NULL,PennController,44,_Trial_,End,1737641994182,NULL
1737642547,bc2584302fffead698e1809107a60040,PennController,44,0,frases,NULL,PennController,45,_Trial_,Start,1737641994183,NULL
1737642547,bc2584302fffead698e1809107a60040,PennController,44,0,frases,NULL,Selector,classificacao,Selection,positiva,1737641995685,negativa;neutra;positiva
1737642547,bc2584302fffead698e1809107a60040,PennController,44,0,frases,NULL,PennController,45,_Trial_,End,1737641995686,NULL
1737642547,bc2584302fffead698e1809107a60040,PennController,45,0,frases,NULL,PennController,46,_Trial_,Start,1737641995687,NULL
1737642547,bc2584302fffead698e1809107a60040,PennController,45,0,frases,NULL,Selector,classificacao,Selection,neutra,1737642007470,negativa;neutra;positiva
1737642547,bc2584302fffead698e1809107a60040,PennController,45,0,frases,NULL,PennController,46,_Trial_,End,1737642007470,NULL
1737642547,bc2584302fffead698e1809107a60040,PennController,46,0,frases,NULL,PennController,47,_Trial_,Start,1737642007471,NULL
1737642547,bc2584302fffead698e1809107a60040,PennController,46,0,frases,NULL,Selector,classificacao,Selection,positiva,1737642009149,negativa;neutra;positiva
1737642547,bc2584302fffead698e1809107a60040,PennController,46,0,frases,NULL,PennController,47,_Trial_,End,1737642009150,NULL
1737642547,bc2584302fffead698e1809107a60040,PennController,47,0,frases,NULL,PennController,48,_Trial_,Start,1737642009151,NULL
1737642547,bc2584302fffead698e1809107a60040,PennController,47,0,frases,NULL,Selector,classificacao,Selection,neutra,1737642012654,negativa;neutra;positiva
1737642547,bc2584302fffead698e1809107a60040,PennController,47,0,frases,NULL,PennController,48,_Trial_,End,1737642012655,NULL
1737642547,bc2584302fffead698e1809107a60040,PennController,48,0,frases,NULL,PennController,49,_Trial_,Start,1737642012655,NULL
1737642547,bc2584302fffead698e1809107a60040,PennController,48,0,frases,NULL,Selector,classificacao,Selection,neutra,1737642018744,negativa;neutra;positiva
1737642547,bc2584302fffead698e1809107a60040,PennController,48,0,frases,NULL,PennController,49,_Trial_,End,1737642018744,NULL
1737642547,bc2584302fffead698e1809107a60040,PennController,49,0,frases,NULL,PennController,50,_Trial_,Start,1737642018745,NULL
1737642547,bc2584302fffead698e1809107a60040,PennController,49,0,frases,NULL,Selector,classificacao,Selection,positiva,1737642022493,negativa;neutra;positiva
1737642547,bc2584302fffead698e1809107a60040,PennController,49,0,frases,NULL,PennController,50,_Trial_,End,1737642022494,NULL
1737642547,bc2584302fffead698e1809107a60040,PennController,50,0,frases,NULL,PennController,51,_Trial_,Start,1737642022495,NULL
1737642547,bc2584302fffead698e1809107a60040,PennController,50,0,frases,NULL,Selector,classificacao,Selection,positiva,1737642024133,negativa;neutra;positiva
1737642547,bc2584302fffead698e1809107a60040,PennController,50,0,frases,NULL,PennController,51,_Trial_,End,1737642024134,NULL
1737642547,bc2584302fffead698e1809107a60040,PennController,51,0,frases,NULL,PennController,52,_Trial_,Start,1737642024135,NULL
1737642547,bc2584302fffead698e1809107a60040,PennController,51,0,frases,NULL,Selector,classificacao,Selection,negativa,1737642026837,negativa;neutra;positiva
1737642547,bc2584302fffead698e1809107a60040,PennController,51,0,frases,NULL,PennController,52,_Trial_,End,1737642026838,NULL
1737642547,bc2584302fffead698e1809107a60040,PennController,52,0,frases,NULL,PennController,53,_Trial_,Start,1737642026838,NULL
1737642547,bc2584302fffead698e1809107a60040,PennController,52,0,frases,NULL,Selector,classificacao,Selection,positiva,1737642032824,negativa;neutra;positiva
1737642547,bc2584302fffead698e1809107a60040,PennController,52,0,frases,NULL,PennController,53,_Trial_,End,1737642032824,NULL
1737642547,bc2584302fffead698e1809107a60040,PennController,53,0,frases,NULL,PennController,54,_Trial_,Start,1737642032825,NULL
1737642547,bc2584302fffead698e1809107a60040,PennController,53,0,frases,NULL,Selector,classificacao,Selection,positiva,1737642038111,negativa;neutra;positiva
1737642547,bc2584302fffead698e1809107a60040,PennController,53,0,frases,NULL,PennController,54,_Trial_,End,1737642038111,NULL
1737642547,bc2584302fffead698e1809107a60040,PennController,54,0,frases,NULL,PennController,55,_Trial_,Start,1737642038112,NULL
1737642547,bc2584302fffead698e1809107a60040,PennController,54,0,frases,NULL,Selector,classificacao,Selection,positiva,1737642044845,negativa;neutra;positiva
1737642547,bc2584302fffead698e1809107a60040,PennController,54,0,frases,NULL,PennController,55,_Trial_,End,1737642044846,NULL
1737642547,bc2584302fffead698e1809107a60040,PennController,55,0,frases,NULL,PennController,56,_Trial_,Start,1737642044847,NULL
1737642547,bc2584302fffead698e1809107a60040,PennController,55,0,frases,NULL,Selector,classificacao,Selection,negativa,1737642049148,negativa;neutra;positiva
1737642547,bc2584302fffead698e1809107a60040,PennController,55,0,frases,NULL,PennController,56,_Trial_,End,1737642049149,NULL
1737642547,bc2584302fffead698e1809107a60040,PennController,56,0,frases,NULL,PennController,57,_Trial_,Start,1737642049150,NULL
1737642547,bc2584302fffead698e1809107a60040,PennController,56,0,frases,NULL,Selector,classificacao,Selection,neutra,1737642057044,negativa;neutra;positiva
1737642547,bc2584302fffead698e1809107a60040,PennController,56,0,frases,NULL,PennController,57,_Trial_,End,1737642057045,NULL
1737642547,bc2584302fffead698e1809107a60040,PennController,57,0,frases,NULL,PennController,58,_Trial_,Start,1737642057045,NULL
1737642547,bc2584302fffead698e1809107a60040,PennController,57,0,frases,NULL,Selector,classificacao,Selection,positiva,1737642065574,negativa;neutra;positiva
1737642547,bc2584302fffead698e1809107a60040,PennController,57,0,frases,NULL,PennController,58,_Trial_,End,1737642065575,NULL
1737642547,bc2584302fffead698e1809107a60040,PennController,58,0,frases,NULL,PennController,59,_Trial_,Start,1737642065575,NULL
1737642547,bc2584302fffead698e1809107a60040,PennController,58,0,frases,NULL,Selector,classificacao,Selection,negativa,1737642072126,negativa;neutra;positiva
1737642547,bc2584302fffead698e1809107a60040,PennController,58,0,frases,NULL,PennController,59,_Trial_,End,1737642072127,NULL
1737642547,bc2584302fffead698e1809107a60040,PennController,59,0,frases,NULL,PennController,60,_Trial_,Start,1737642072127,NULL
1737642547,bc2584302fffead698e1809107a60040,PennController,59,0,frases,NULL,Selector,classificacao,Selection,positiva,1737642082185,negativa;neutra;positiva
1737642547,bc2584302fffead698e1809107a60040,PennController,59,0,frases,NULL,PennController,60,_Trial_,End,1737642082185,NULL
1737642547,bc2584302fffead698e1809107a60040,PennController,60,0,frases,NULL,PennController,61,_Trial_,Start,1737642082186,NULL
1737642547,bc2584302fffead698e1809107a60040,PennController,60,0,frases,NULL,Selector,classificacao,Selection,negativa,1737642110629,negativa;neutra;positiva
1737642547,bc2584302fffead698e1809107a60040,PennController,60,0,frases,NULL,PennController,61,_Trial_,End,1737642110630,NULL
1737642547,bc2584302fffead698e1809107a60040,PennController,61,0,frases,NULL,PennController,62,_Trial_,Start,1737642110630,NULL
1737642547,bc2584302fffead698e1809107a60040,PennController,61,0,frases,NULL,Selector,classificacao,Selection,negativa,1737642114702,negativa;neutra;positiva
1737642547,bc2584302fffead698e1809107a60040,PennController,61,0,frases,NULL,PennController,62,_Trial_,End,1737642114703,NULL
1737642547,bc2584302fffead698e1809107a60040,PennController,62,0,frases,NULL,PennController,63,_Trial_,Start,1737642114704,NULL
1737642547,bc2584302fffead698e1809107a60040,PennController,62,0,frases,NULL,Selector,classificacao,Selection,positiva,1737642116893,negativa;neutra;positiva
1737642547,bc2584302fffead698e1809107a60040,PennController,62,0,frases,NULL,PennController,63,_Trial_,End,1737642116894,NULL
1737642547,bc2584302fffead698e1809107a60040,PennController,63,0,frases,NULL,PennController,64,_Trial_,Start,1737642116894,NULL
1737642547,bc2584302fffead698e1809107a60040,PennController,63,0,frases,NULL,Selector,classificacao,Selection,positiva,1737642119460,negativa;neutra;positiva
1737642547,bc2584302fffead698e1809107a60040,PennController,63,0,frases,NULL,PennController,64,_Trial_,End,1737642119461,NULL
1737642547,bc2584302fffead698e1809107a60040,PennController,64,0,frases,NULL,PennController,65,_Trial_,Start,1737642119461,NULL
1737642547,bc2584302fffead698e1809107a60040,PennController,64,0,frases,NULL,Selector,classificacao,Selection,negativa,1737642122486,negativa;neutra;positiva
1737642547,bc2584302fffead698e1809107a60040,PennController,64,0,frases,NULL,PennController,65,_Trial_,End,1737642122486,NULL
1737642547,bc2584302fffead698e1809107a60040,PennController,65,0,frases,NULL,PennController,66,_Trial_,Start,1737642122487,NULL
1737642547,bc2584302fffead698e1809107a60040,PennController,65,0,frases,NULL,Selector,classificacao,Selection,positiva,1737642128229,negativa;neutra;positiva
1737642547,bc2584302fffead698e1809107a60040,PennController,65,0,frases,NULL,PennController,66,_Trial_,End,1737642128229,NULL
1737642547,bc2584302fffead698e1809107a60040,PennController,66,0,frases,NULL,PennController,67,_Trial_,Start,1737642128230,NULL
1737642547,bc2584302fffead698e1809107a60040,PennController,66,0,frases,NULL,Selector,classificacao,Selection,positiva,1737642136733,negativa;neutra;positiva
1737642547,bc2584302fffead698e1809107a60040,PennController,66,0,frases,NULL,PennController,67,_Trial_,End,1737642136734,NULL
1737642547,bc2584302fffead698e1809107a60040,PennController,67,0,frases,NULL,PennController,68,_Trial_,Start,1737642136734,NULL
1737642547,bc2584302fffead698e1809107a60040,PennController,67,0,frases,NULL,Selector,classificacao,Selection,positiva,1737642140220,negativa;neutra;positiva
1737642547,bc2584302fffead698e1809107a60040,PennController,67,0,frases,NULL,PennController,68,_Trial_,End,1737642140221,NULL
1737642547,bc2584302fffead698e1809107a60040,PennController,68,0,frases,NULL,PennController,69,_Trial_,Start,1737642140221,NULL
1737642547,bc2584302fffead698e1809107a60040,PennController,68,0,frases,NULL,Selector,classificacao,Selection,negativa,1737642142405,negativa;neutra;positiva
1737642547,bc2584302fffead698e1809107a60040,PennController,68,0,frases,NULL,PennController,69,_Trial_,End,1737642142406,NULL
1737642547,bc2584302fffead698e1809107a60040,PennController,69,0,frases,NULL,PennController,70,_Trial_,Start,1737642142407,NULL
1737642547,bc2584302fffead698e1809107a60040,PennController,69,0,frases,NULL,Selector,classificacao,Selection,neutra,1737642147126,negativa;neutra;positiva
1737642547,bc2584302fffead698e1809107a60040,PennController,69,0,frases,NULL,PennController,70,_Trial_,End,1737642147126,NULL
1737642547,bc2584302fffead698e1809107a60040,PennController,70,0,frases,NULL,PennController,71,_Trial_,Start,1737642147127,NULL
1737642547,bc2584302fffead698e1809107a60040,PennController,70,0,frases,NULL,Selector,classificacao,Selection,positiva,1737642157333,negativa;neutra;positiva
1737642547,bc2584302fffead698e1809107a60040,PennController,70,0,frases,NULL,PennController,71,_Trial_,End,1737642157334,NULL
1737642547,bc2584302fffead698e1809107a60040,PennController,71,0,frases,NULL,PennController,72,_Trial_,Start,1737642157335,NULL
1737642547,bc2584302fffead698e1809107a60040,PennController,71,0,frases,NULL,Selector,classificacao,Selection,neutra,1737642161964,negativa;neutra;positiva
1737642547,bc2584302fffead698e1809107a60040,PennController,71,0,frases,NULL,PennController,72,_Trial_,End,1737642161965,NULL
1737642547,bc2584302fffead698e1809107a60040,PennController,72,0,frases,NULL,PennController,73,_Trial_,Start,1737642161967,NULL
1737642547,bc2584302fffead698e1809107a60040,PennController,72,0,frases,NULL,Selector,classificacao,Selection,neutra,1737642165925,negativa;neutra;positiva
1737642547,bc2584302fffead698e1809107a60040,PennController,72,0,frases,NULL,PennController,73,_Trial_,End,1737642165926,NULL
1737642547,bc2584302fffead698e1809107a60040,PennController,73,0,frases,NULL,PennController,74,_Trial_,Start,1737642165926,NULL
1737642547,bc2584302fffead698e1809107a60040,PennController,73,0,frases,NULL,Selector,classificacao,Selection,positiva,1737642169038,negativa;neutra;positiva
1737642547,bc2584302fffead698e1809107a60040,PennController,73,0,frases,NULL,PennController,74,_Trial_,End,1737642169039,NULL
1737642547,bc2584302fffead698e1809107a60040,PennController,74,0,frases,NULL,PennController,75,_Trial_,Start,1737642169039,NULL
1737642547,bc2584302fffead698e1809107a60040,PennController,74,0,frases,NULL,Selector,classificacao,Selection,positiva,1737642170439,negativa;neutra;positiva
1737642547,bc2584302fffead698e1809107a60040,PennController,74,0,frases,NULL,PennController,75,_Trial_,End,1737642170439,NULL
1737642547,bc2584302fffead698e1809107a60040,PennController,75,0,frases,NULL,PennController,76,_Trial_,Start,1737642170440,NULL
1737642547,bc2584302fffead698e1809107a60040,PennController,75,0,frases,NULL,Selector,classificacao,Selection,neutra,1737642174286,negativa;neutra;positiva
1737642547,bc2584302fffead698e1809107a60040,PennController,75,0,frases,NULL,PennController,76,_Trial_,End,1737642174287,NULL
1737642547,bc2584302fffead698e1809107a60040,PennController,76,0,frases,NULL,PennController,77,_Trial_,Start,1737642174287,NULL
1737642547,bc2584302fffead698e1809107a60040,PennController,76,0,frases,NULL,Selector,classificacao,Selection,negativa,1737642179847,negativa;neutra;positiva
1737642547,bc2584302fffead698e1809107a60040,PennController,76,0,frases,NULL,PennController,77,_Trial_,End,1737642179847,NULL
1737642547,bc2584302fffead698e1809107a60040,PennController,77,0,frases,NULL,PennController,78,_Trial_,Start,1737642179848,NULL
1737642547,bc2584302fffead698e1809107a60040,PennController,77,0,frases,NULL,Selector,classificacao,Selection,positiva,1737642182756,negativa;neutra;positiva
1737642547,bc2584302fffead698e1809107a60040,PennController,77,0,frases,NULL,PennController,78,_Trial_,End,1737642182757,NULL
1737642547,bc2584302fffead698e1809107a60040,PennController,78,0,frases,NULL,PennController,79,_Trial_,Start,1737642182758,NULL
1737642547,bc2584302fffead698e1809107a60040,PennController,78,0,frases,NULL,Selector,classificacao,Selection,negativa,1737642186262,negativa;neutra;positiva
1737642547,bc2584302fffead698e1809107a60040,PennController,78,0,frases,NULL,PennController,79,_Trial_,End,1737642186262,NULL
1737642547,bc2584302fffead698e1809107a60040,PennController,79,0,frases,NULL,PennController,80,_Trial_,Start,1737642186262,NULL
1737642547,bc2584302fffead698e1809107a60040,PennController,79,0,frases,NULL,Selector,classificacao,Selection,positiva,1737642193214,negativa;neutra;positiva
1737642547,bc2584302fffead698e1809107a60040,PennController,79,0,frases,NULL,PennController,80,_Trial_,End,1737642193214,NULL
1737642547,bc2584302fffead698e1809107a60040,PennController,80,0,frases,NULL,PennController,81,_Trial_,Start,1737642193215,NULL
1737642547,bc2584302fffead698e1809107a60040,PennController,80,0,frases,NULL,Selector,classificacao,Selection,neutra,1737642195229,negativa;neutra;positiva
1737642547,bc2584302fffead698e1809107a60040,PennController,80,0,frases,NULL,PennController,81,_Trial_,End,1737642195230,NULL
1737642547,bc2584302fffead698e1809107a60040,PennController,81,0,frases,NULL,PennController,82,_Trial_,Start,1737642195230,NULL
1737642547,bc2584302fffead698e1809107a60040,PennController,81,0,frases,NULL,Selector,classificacao,Selection,neutra,1737642198782,negativa;neutra;positiva
1737642547,bc2584302fffead698e1809107a60040,PennController,81,0,frases,NULL,PennController,82,_Trial_,End,1737642198782,NULL
1737642547,bc2584302fffead698e1809107a60040,PennController,82,0,frases,NULL,PennController,83,_Trial_,Start,1737642198783,NULL
1737642547,bc2584302fffead698e1809107a60040,PennController,82,0,frases,NULL,Selector,classificacao,Selection,negativa,1737642201038,negativa;neutra;positiva
1737642547,bc2584302fffead698e1809107a60040,PennController,82,0,frases,NULL,PennController,83,_Trial_,End,1737642201039,NULL
1737642547,bc2584302fffead698e1809107a60040,PennController,83,0,frases,NULL,PennController,84,_Trial_,Start,1737642201039,NULL
1737642547,bc2584302fffead698e1809107a60040,PennController,83,0,frases,NULL,Selector,classificacao,Selection,positiva,1737642203478,negativa;neutra;positiva
1737642547,bc2584302fffead698e1809107a60040,PennController,83,0,frases,NULL,PennController,84,_Trial_,End,1737642203478,NULL
1737642547,bc2584302fffead698e1809107a60040,PennController,84,0,frases,NULL,PennController,85,_Trial_,Start,1737642203478,NULL
1737642547,bc2584302fffead698e1809107a60040,PennController,84,0,frases,NULL,Selector,classificacao,Selection,positiva,1737642205358,negativa;neutra;positiva
1737642547,bc2584302fffead698e1809107a60040,PennController,84,0,frases,NULL,PennController,85,_Trial_,End,1737642205359,NULL
1737642547,bc2584302fffead698e1809107a60040,PennController,85,0,frases,NULL,PennController,86,_Trial_,Start,1737642205359,NULL
1737642547,bc2584302fffead698e1809107a60040,PennController,85,0,frases,NULL,Selector,classificacao,Selection,neutra,1737642211701,negativa;neutra;positiva
1737642547,bc2584302fffead698e1809107a60040,PennController,85,0,frases,NULL,PennController,86,_Trial_,End,1737642211702,NULL
1737642547,bc2584302fffead698e1809107a60040,PennController,86,0,frases,NULL,PennController,87,_Trial_,Start,1737642211703,NULL
1737642547,bc2584302fffead698e1809107a60040,PennController,86,0,frases,NULL,Selector,classificacao,Selection,neutra,1737642214371,negativa;neutra;positiva
1737642547,bc2584302fffead698e1809107a60040,PennController,86,0,frases,NULL,PennController,87,_Trial_,End,1737642214372,NULL
1737642547,bc2584302fffead698e1809107a60040,PennController,87,0,frases,NULL,PennController,88,_Trial_,Start,1737642214372,NULL
1737642547,bc2584302fffead698e1809107a60040,PennController,87,0,frases,NULL,Selector,classificacao,Selection,negativa,1737642217278,negativa;neutra;positiva
1737642547,bc2584302fffead698e1809107a60040,PennController,87,0,frases,NULL,PennController,88,_Trial_,End,1737642217278,NULL
1737642547,bc2584302fffead698e1809107a60040,PennController,88,0,frases,NULL,PennController,89,_Trial_,Start,1737642217279,NULL
1737642547,bc2584302fffead698e1809107a60040,PennController,88,0,frases,NULL,Selector,classificacao,Selection,neutra,1737642219493,negativa;neutra;positiva
1737642547,bc2584302fffead698e1809107a60040,PennController,88,0,frases,NULL,PennController,89,_Trial_,End,1737642219494,NULL
1737642547,bc2584302fffead698e1809107a60040,PennController,89,0,frases,NULL,PennController,90,_Trial_,Start,1737642219494,NULL
1737642547,bc2584302fffead698e1809107a60040,PennController,89,0,frases,NULL,Selector,classificacao,Selection,negativa,1737642226014,negativa;neutra;positiva
1737642547,bc2584302fffead698e1809107a60040,PennController,89,0,frases,NULL,PennController,90,_Trial_,End,1737642226015,NULL
1737642547,bc2584302fffead698e1809107a60040,PennController,90,0,frases,NULL,PennController,91,_Trial_,Start,1737642226015,NULL
1737642547,bc2584302fffead698e1809107a60040,PennController,90,0,frases,NULL,Selector,classificacao,Selection,positiva,1737642228717,negativa;neutra;positiva
