#
# Results on Thu, 23 Jan 2025 17:27:15 GMT
# USER AGENT: Mozilla/5.0 (Windows NT 10.0; Win64; x64; rv:134.0) Gecko/20100101 Firefox/134.0
# Design number was non-random = 0
#
# Columns below this comment are as follows:
# 1. Results reception time.
# 2. MD5 hash of participant's IP address.
# 3. Controller name.
# 4. Order number of item.
# 5. Inner element number.
# 6. Label.
# 7. Latin Square Group.
# 8. PennElementType.
# 9. PennElementName.
# 10. Parameter.
# 11. Value.
# 12. EventTime.
# 13. Comments.
1737653235,bc2584302fffead698e1809107a60040,PennController,0,0,TCLE,NULL,PennController,0,_Trial_,Start,1737649507736,NULL
1737653235,bc2584302fffead698e1809107a60040,PennController,0,0,TCLE,NULL,PennController,0,_Trial_,End,1737649592645,NULL
1737653235,bc2584302fffead698e1809107a60040,PennController,3,0,instrucoes,NULL,PennController,3,_Trial_,Start,1737649592649,NULL
1737653235,bc2584302fffead698e1809107a60040,PennController,3,0,instrucoes,NULL,PennController,3,_Trial_,End,1737649594100,NULL
1737653235,bc2584302fffead698e1809107a60040,PennController,1,0,genero,NULL,PennController,1,_Trial_,Start,1737649594102,NULL
1737653235,bc2584302fffead698e1809107a60040,PennController,1,0,genero,NULL,DropDown,selecionaGenero,Selected,Masculino,1737649595475,0
1737653235,bc2584302fffead698e1809107a60040,PennController,1,0,genero,NULL,PennController,1,_Trial_,End,1737649596255,NULL
1737653235,bc2584302fffead698e1809107a60040,PennController,4,0,frases,NULL,PennController,5,_Trial_,Start,1737649596257,NULL
1737653235,bc2584302fffead698e1809107a60040,PennController,4,0,frases,NULL,Selector,classificacao,Selection,positiva,1737652682519,negativa;neutra;positiva
1737653235,bc2584302fffead698e1809107a60040,PennController,4,0,frases,NULL,PennController,5,_Trial_,End,1737652682521,NULL
1737653235,bc2584302fffead698e1809107a60040,PennController,5,0,frases,NULL,PennController,6,_Trial_,Start,1737652682524,NULL
1737653235,bc2584302fffead698e1809107a60040,PennController,5,0,frases,NULL,Selector,classificacao,Selection,neutra,1737652685568,negativa;neutra;positiva
1737653235,bc2584302fffead698e1809107a60040,PennController,5,0,frases,NULL,PennController,6,_Trial_,End,1737652685570,NULL
1737653235,bc2584302fffead698e1809107a60040,PennController,6,0,frases,NULL,PennController,7,_Trial_,Start,1737652685571,NULL
1737653235,bc2584302fffead698e1809107a60040,PennController,6,0,frases,NULL,Selector,classificacao,Selection,neutra,1737652691806,negativa;neutra;positiva
1737653235,bc2584302fffead698e1809107a60040,PennController,6,0,frases,NULL,PennController,7,_Trial_,End,1737652691807,NULL
1737653235,bc2584302fffead698e1809107a60040,PennController,7,0,frases,NULL,PennController,8,_Trial_,Start,1737652691808,NULL
1737653235,bc2584302fffead698e1809107a60040,PennController,7,0,frases,NULL,Selector,classificacao,Selection,negativa,1737652694775,negativa;neutra;positiva
1737653235,bc2584302fffead698e1809107a60040,PennController,7,0,frases,NULL,PennController,8,_Trial_,End,1737652694776,NULL
1737653235,bc2584302fffead698e1809107a60040,PennController,8,0,frases,NULL,PennController,9,_Trial_,Start,1737652694777,NULL
1737653235,bc2584302fffead698e1809107a60040,PennController,8,0,frases,NULL,Selector,classificacao,Selection,neutra,1737652697472,negativa;neutra;positiva
1737653235,bc2584302fffead698e1809107a60040,PennController,8,0,frases,NULL,PennController,9,_Trial_,End,1737652697473,NULL
1737653235,bc2584302fffead698e1809107a60040,PennController,9,0,frases,NULL,PennController,10,_Trial_,Start,1737652697473,NULL
1737653235,bc2584302fffead698e1809107a60040,PennController,9,0,frases,NULL,Selector,classificacao,Selection,neutra,1737652700647,negativa;neutra;positiva
1737653235,bc2584302fffead698e1809107a60040,PennController,9,0,frases,NULL,PennController,10,_Trial_,End,1737652700648,NULL
1737653235,bc2584302fffead698e1809107a60040,PennController,10,0,frases,NULL,PennController,11,_Trial_,Start,1737652700649,NULL
1737653235,bc2584302fffead698e1809107a60040,PennController,10,0,frases,NULL,Selector,classificacao,Selection,positiva,1737652702152,negativa;neutra;positiva
1737653235,bc2584302fffead698e1809107a60040,PennController,10,0,frases,NULL,PennController,11,_Trial_,End,1737652702153,NULL
1737653235,bc2584302fffead698e1809107a60040,PennController,11,0,frases,NULL,PennController,12,_Trial_,Start,1737652702154,NULL
1737653235,bc2584302fffead698e1809107a60040,PennController,11,0,frases,NULL,Selector,classificacao,Selection,positiva,1737652706167,negativa;neutra;positiva
1737653235,bc2584302fffead698e1809107a60040,PennController,11,0,frases,NULL,PennController,12,_Trial_,End,1737652706168,NULL
1737653235,bc2584302fffead698e1809107a60040,PennController,12,0,frases,NULL,PennController,13,_Trial_,Start,1737652706169,NULL
1737653235,bc2584302fffead698e1809107a60040,PennController,12,0,frases,NULL,Selector,classificacao,Selection,negativa,1737652710279,negativa;neutra;positiva
1737653235,bc2584302fffead698e1809107a60040,PennController,12,0,frases,NULL,PennController,13,_Trial_,End,1737652710281,NULL
1737653235,bc2584302fffead698e1809107a60040,PennController,13,0,frases,NULL,PennController,14,_Trial_,Start,1737652710282,NULL
1737653235,bc2584302fffead698e1809107a60040,PennController,13,0,frases,NULL,Selector,classificacao,Selection,negativa,1737652712615,negativa;neutra;positiva
1737653235,bc2584302fffead698e1809107a60040,PennController,13,0,frases,NULL,PennController,14,_Trial_,End,1737652712616,NULL
1737653235,bc2584302fffead698e1809107a60040,PennController,14,0,frases,NULL,PennController,15,_Trial_,Start,1737652712616,NULL
1737653235,bc2584302fffead698e1809107a60040,PennController,14,0,frases,NULL,Selector,classificacao,Selection,positiva,1737652716744,negativa;neutra;positiva
1737653235,bc2584302fffead698e1809107a60040,PennController,14,0,frases,NULL,PennController,15,_Trial_,End,1737652716746,NULL
1737653235,bc2584302fffead698e1809107a60040,PennController,15,0,frases,NULL,PennController,16,_Trial_,Start,1737652716746,NULL
1737653235,bc2584302fffead698e1809107a60040,PennController,15,0,frases,NULL,Selector,classificacao,Selection,negativa,1737652721935,negativa;neutra;positiva
1737653235,bc2584302fffead698e1809107a60040,PennController,15,0,frases,NULL,PennController,16,_Trial_,End,1737652721935,NULL
1737653235,bc2584302fffead698e1809107a60040,PennController,16,0,frases,NULL,PennController,17,_Trial_,Start,1737652721936,NULL
1737653235,bc2584302fffead698e1809107a60040,PennController,16,0,frases,NULL,Selector,classificacao,Selection,positiva,1737652728727,negativa;neutra;positiva
1737653235,bc2584302fffead698e1809107a60040,PennController,16,0,frases,NULL,PennController,17,_Trial_,End,1737652728728,NULL
1737653235,bc2584302fffead698e1809107a60040,PennController,17,0,frases,NULL,PennController,18,_Trial_,Start,1737652728729,NULL
1737653235,bc2584302fffead698e1809107a60040,PennController,17,0,frases,NULL,Selector,classificacao,Selection,positiva,1737652730023,negativa;neutra;positiva
1737653235,bc2584302fffead698e1809107a60040,PennController,17,0,frases,NULL,PennController,18,_Trial_,End,1737652730023,NULL
1737653235,bc2584302fffead698e1809107a60040,PennController,18,0,frases,NULL,PennController,19,_Trial_,Start,1737652730025,NULL
1737653235,bc2584302fffead698e1809107a60040,PennController,18,0,frases,NULL,Selector,classificacao,Selection,positiva,1737652733415,negativa;neutra;positiva
1737653235,bc2584302fffead698e1809107a60040,PennController,18,0,frases,NULL,PennController,19,_Trial_,End,1737652733416,NULL
1737653235,bc2584302fffead698e1809107a60040,PennController,19,0,frases,NULL,PennController,20,_Trial_,Start,1737652733416,NULL
1737653235,bc2584302fffead698e1809107a60040,PennController,19,0,frases,NULL,Selector,classificacao,Selection,neutra,1737652736233,negativa;neutra;positiva
1737653235,bc2584302fffead698e1809107a60040,PennController,19,0,frases,NULL,PennController,20,_Trial_,End,1737652736234,NULL
1737653235,bc2584302fffead698e1809107a60040,PennController,20,0,frases,NULL,PennController,21,_Trial_,Start,1737652736234,NULL
1737653235,bc2584302fffead698e1809107a60040,PennController,20,0,frases,NULL,Selector,classificacao,Selection,positiva,1737652738087,negativa;neutra;positiva
1737653235,bc2584302fffead698e1809107a60040,PennController,20,0,frases,NULL,PennController,21,_Trial_,End,1737652738088,NULL
1737653235,bc2584302fffead698e1809107a60040,PennController,21,0,frases,NULL,PennController,22,_Trial_,Start,1737652738088,NULL
1737653235,bc2584302fffead698e1809107a60040,PennController,21,0,frases,NULL,Selector,classificacao,Selection,negativa,1737652740785,negativa;neutra;positiva
1737653235,bc2584302fffead698e1809107a60040,PennController,21,0,frases,NULL,PennController,22,_Trial_,End,1737652740786,NULL
1737653235,bc2584302fffead698e1809107a60040,PennController,22,0,frases,NULL,PennController,23,_Trial_,Start,1737652740787,NULL
1737653235,bc2584302fffead698e1809107a60040,PennController,22,0,frases,NULL,Selector,classificacao,Selection,negativa,1737652746726,negativa;neutra;positiva
1737653235,bc2584302fffead698e1809107a60040,PennController,22,0,frases,NULL,PennController,23,_Trial_,End,1737652746727,NULL
1737653235,bc2584302fffead698e1809107a60040,PennController,23,0,frases,NULL,PennController,24,_Trial_,Start,1737652746728,NULL
1737653235,bc2584302fffead698e1809107a60040,PennController,23,0,frases,NULL,Selector,classificacao,Selection,positiva,1737652749680,negativa;neutra;positiva
1737653235,bc2584302fffead698e1809107a60040,PennController,23,0,frases,NULL,PennController,24,_Trial_,End,1737652749682,NULL
1737653235,bc2584302fffead698e1809107a60040,PennController,24,0,frases,NULL,PennController,25,_Trial_,Start,1737652749682,NULL
1737653235,bc2584302fffead698e1809107a60040,PennController,24,0,frases,NULL,Selector,classificacao,Selection,positiva,1737652752063,negativa;neutra;positiva
1737653235,bc2584302fffead698e1809107a60040,PennController,24,0,frases,NULL,PennController,25,_Trial_,End,1737652752063,NULL
1737653235,bc2584302fffead698e1809107a60040,PennController,25,0,frases,NULL,PennController,26,_Trial_,Start,1737652752063,NULL
1737653235,bc2584302fffead698e1809107a60040,PennController,25,0,frases,NULL,Selector,classificacao,Selection,neutra,1737652754952,negativa;neutra;positiva
1737653235,bc2584302fffead698e1809107a60040,PennController,25,0,frases,NULL,PennController,26,_Trial_,End,1737652754953,NULL
1737653235,bc2584302fffead698e1809107a60040,PennController,26,0,frases,NULL,PennController,27,_Trial_,Start,1737652754954,NULL
1737653235,bc2584302fffead698e1809107a60040,PennController,26,0,frases,NULL,Selector,classificacao,Selection,neutra,1737652756111,negativa;neutra;positiva
1737653235,bc2584302fffead698e1809107a60040,PennController,26,0,frases,NULL,PennController,27,_Trial_,End,1737652756111,NULL
1737653235,bc2584302fffead698e1809107a60040,PennController,27,0,frases,NULL,PennController,28,_Trial_,Start,1737652756113,NULL
1737653235,bc2584302fffead698e1809107a60040,PennController,27,0,frases,NULL,Selector,classificacao,Selection,positiva,1737652759200,negativa;neutra;positiva
1737653235,bc2584302fffead698e1809107a60040,PennController,27,0,frases,NULL,PennController,28,_Trial_,End,1737652759201,NULL
1737653235,bc2584302fffead698e1809107a60040,PennController,28,0,frases,NULL,PennController,29,_Trial_,Start,1737652759202,NULL
1737653235,bc2584302fffead698e1809107a60040,PennController,28,0,frases,NULL,Selector,classificacao,Selection,positiva,1737652763896,negativa;neutra;positiva
1737653235,bc2584302fffead698e1809107a60040,PennController,28,0,frases,NULL,PennController,29,_Trial_,End,1737652763897,NULL
1737653235,bc2584302fffead698e1809107a60040,PennController,29,0,frases,NULL,PennController,30,_Trial_,Start,1737652763897,NULL
1737653235,bc2584302fffead698e1809107a60040,PennController,29,0,frases,NULL,Selector,classificacao,Selection,positiva,1737652768759,negativa;neutra;positiva
1737653235,bc2584302fffead698e1809107a60040,PennController,29,0,frases,NULL,PennController,30,_Trial_,End,1737652768759,NULL
1737653235,bc2584302fffead698e1809107a60040,PennController,30,0,frases,NULL,PennController,31,_Trial_,Start,1737652768760,NULL
1737653235,bc2584302fffead698e1809107a60040,PennController,30,0,frases,NULL,Selector,classificacao,Selection,positiva,1737652769959,negativa;neutra;positiva
1737653235,bc2584302fffead698e1809107a60040,PennController,30,0,frases,NULL,PennController,31,_Trial_,End,1737652769960,NULL
1737653235,bc2584302fffead698e1809107a60040,PennController,31,0,frases,NULL,PennController,32,_Trial_,Start,1737652769961,NULL
1737653235,bc2584302fffead698e1809107a60040,PennController,31,0,frases,NULL,Selector,classificacao,Selection,positiva,1737652772551,negativa;neutra;positiva
1737653235,bc2584302fffead698e1809107a60040,PennController,31,0,frases,NULL,PennController,32,_Trial_,End,1737652772552,NULL
1737653235,bc2584302fffead698e1809107a60040,PennController,32,0,frases,NULL,PennController,33,_Trial_,Start,1737652772553,NULL
1737653235,bc2584302fffead698e1809107a60040,PennController,32,0,frases,NULL,Selector,classificacao,Selection,negativa,1737652776640,negativa;neutra;positiva
1737653235,bc2584302fffead698e1809107a60040,PennController,32,0,frases,NULL,PennController,33,_Trial_,End,1737652776640,NULL
1737653235,bc2584302fffead698e1809107a60040,PennController,33,0,frases,NULL,PennController,34,_Trial_,Start,1737652776641,NULL
1737653235,bc2584302fffead698e1809107a60040,PennController,33,0,frases,NULL,Selector,classificacao,Selection,neutra,1737652779416,negativa;neutra;positiva
1737653235,bc2584302fffead698e1809107a60040,PennController,33,0,frases,NULL,PennController,34,_Trial_,End,1737652779417,NULL
1737653235,bc2584302fffead698e1809107a60040,PennController,34,0,frases,NULL,PennController,35,_Trial_,Start,1737652779417,NULL
1737653235,bc2584302fffead698e1809107a60040,PennController,34,0,frases,NULL,Selector,classificacao,Selection,neutra,1737652783448,negativa;neutra;positiva
1737653235,bc2584302fffead698e1809107a60040,PennController,34,0,frases,NULL,PennController,35,_Trial_,End,1737652783448,NULL
1737653235,bc2584302fffead698e1809107a60040,PennController,35,0,frases,NULL,PennController,36,_Trial_,Start,1737652783449,NULL
1737653235,bc2584302fffead698e1809107a60040,PennController,35,0,frases,NULL,Selector,classificacao,Selection,negativa,1737652787414,negativa;neutra;positiva
1737653235,bc2584302fffead698e1809107a60040,PennController,35,0,frases,NULL,PennController,36,_Trial_,End,1737652787415,NULL
1737653235,bc2584302fffead698e1809107a60040,PennController,36,0,frases,NULL,PennController,37,_Trial_,Start,1737652787416,NULL
1737653235,bc2584302fffead698e1809107a60040,PennController,36,0,frases,NULL,Selector,classificacao,Selection,positiva,1737652789375,negativa;neutra;positiva
1737653235,bc2584302fffead698e1809107a60040,PennController,36,0,frases,NULL,PennController,37,_Trial_,End,1737652789375,NULL
1737653235,bc2584302fffead698e1809107a60040,PennController,37,0,frases,NULL,PennController,38,_Trial_,Start,1737652789376,NULL
1737653235,bc2584302fffead698e1809107a60040,PennController,37,0,frases,NULL,Selector,classificacao,Selection,positiva,1737652791199,negativa;neutra;positiva
1737653235,bc2584302fffead698e1809107a60040,PennController,37,0,frases,NULL,PennController,38,_Trial_,End,1737652791200,NULL
1737653235,bc2584302fffead698e1809107a60040,PennController,38,0,frases,NULL,PennController,39,_Trial_,Start,1737652791201,NULL
1737653235,bc2584302fffead698e1809107a60040,PennController,38,0,frases,NULL,Selector,classificacao,Selection,positiva,1737652793888,negativa;neutra;positiva
1737653235,bc2584302fffead698e1809107a60040,PennController,38,0,frases,NULL,PennController,39,_Trial_,End,1737652793889,NULL
1737653235,bc2584302fffead698e1809107a60040,PennController,39,0,frases,NULL,PennController,40,_Trial_,Start,1737652793890,NULL
1737653235,bc2584302fffead698e1809107a60040,PennController,39,0,frases,NULL,Selector,classificacao,Selection,positiva,1737652796719,negativa;neutra;positiva
1737653235,bc2584302fffead698e1809107a60040,PennController,39,0,frases,NULL,PennController,40,_Trial_,End,1737652796720,NULL
1737653235,bc2584302fffead698e1809107a60040,PennController,40,0,frases,NULL,PennController,41,_Trial_,Start,1737652796720,NULL
1737653235,bc2584302fffead698e1809107a60040,PennController,40,0,frases,NULL,Selector,classificacao,Selection,negativa,1737652799368,negativa;neutra;positiva
1737653235,bc2584302fffead698e1809107a60040,PennController,40,0,frases,NULL,PennController,41,_Trial_,End,1737652799369,NULL
1737653235,bc2584302fffead698e1809107a60040,PennController,41,0,frases,NULL,PennController,42,_Trial_,Start,1737652799369,NULL
1737653235,bc2584302fffead698e1809107a60040,PennController,41,0,frases,NULL,Selector,classificacao,Selection,neutra,1737652809128,negativa;neutra;positiva
1737653235,bc2584302fffead698e1809107a60040,PennController,41,0,frases,NULL,PennController,42,_Trial_,End,1737652809128,NULL
1737653235,bc2584302fffead698e1809107a60040,PennController,42,0,frases,NULL,PennController,43,_Trial_,Start,1737652809129,NULL
1737653235,bc2584302fffead698e1809107a60040,PennController,42,0,frases,NULL,Selector,classificacao,Selection,positiva,1737652811888,negativa;neutra;positiva
1737653235,bc2584302fffead698e1809107a60040,PennController,42,0,frases,NULL,PennController,43,_Trial_,End,1737652811888,NULL
1737653235,bc2584302fffead698e1809107a60040,PennController,43,0,frases,NULL,PennController,44,_Trial_,Start,1737652811889,NULL
1737653235,bc2584302fffead698e1809107a60040,PennController,43,0,frases,NULL,Selector,classificacao,Selection,neutra,1737652814991,negativa;neutra;positiva
1737653235,bc2584302fffead698e1809107a60040,PennController,43,0,frases,NULL,PennController,44,_Trial_,End,1737652814991,NULL
1737653235,bc2584302fffead698e1809107a60040,PennController,44,0,frases,NULL,PennController,45,_Trial_,Start,1737652814992,NULL
1737653235,bc2584302fffead698e1809107a60040,PennController,44,0,frases,NULL,Selector,classificacao,Selection,negativa,1737652817096,negativa;neutra;positiva
1737653235,bc2584302fffead698e1809107a60040,PennController,44,0,frases,NULL,PennController,45,_Trial_,End,1737652817096,NULL
1737653235,bc2584302fffead698e1809107a60040,PennController,45,0,frases,NULL,PennController,46,_Trial_,Start,1737652817098,NULL
1737653235,bc2584302fffead698e1809107a60040,PennController,45,0,frases,NULL,Selector,classificacao,Selection,negativa,1737652822295,negativa;neutra;positiva
1737653235,bc2584302fffead698e1809107a60040,PennController,45,0,frases,NULL,PennController,46,_Trial_,End,1737652822296,NULL
1737653235,bc2584302fffead698e1809107a60040,PennController,46,0,frases,NULL,PennController,47,_Trial_,Start,1737652822297,NULL
1737653235,bc2584302fffead698e1809107a60040,PennController,46,0,frases,NULL,Selector,classificacao,Selection,negativa,1737652824303,negativa;neutra;positiva
1737653235,bc2584302fffead698e1809107a60040,PennController,46,0,frases,NULL,PennController,47,_Trial_,End,1737652824304,NULL
1737653235,bc2584302fffead698e1809107a60040,PennController,47,0,frases,NULL,PennController,48,_Trial_,Start,1737652824304,NULL
1737653235,bc2584302fffead698e1809107a60040,PennController,47,0,frases,NULL,Selector,classificacao,Selection,negativa,1737652826102,negativa;neutra;positiva
1737653235,bc2584302fffead698e1809107a60040,PennController,47,0,frases,NULL,PennController,48,_Trial_,End,1737652826103,NULL
1737653235,bc2584302fffead698e1809107a60040,PennController,48,0,frases,NULL,PennController,49,_Trial_,Start,1737652826104,NULL
1737653235,bc2584302fffead698e1809107a60040,PennController,48,0,frases,NULL,Selector,classificacao,Selection,positiva,1737652829048,negativa;neutra;positiva
1737653235,bc2584302fffead698e1809107a60040,PennController,48,0,frases,NULL,PennController,49,_Trial_,End,1737652829048,NULL
1737653235,bc2584302fffead698e1809107a60040,PennController,49,0,frases,NULL,PennController,50,_Trial_,Start,1737652829050,NULL
1737653235,bc2584302fffead698e1809107a60040,PennController,49,0,frases,NULL,Selector,classificacao,Selection,positiva,1737652832055,negativa;neutra;positiva
1737653235,bc2584302fffead698e1809107a60040,PennController,49,0,frases,NULL,PennController,50,_Trial_,End,1737652832056,NULL
1737653235,bc2584302fffead698e1809107a60040,PennController,50,0,frases,NULL,PennController,51,_Trial_,Start,1737652832056,NULL
1737653235,bc2584302fffead698e1809107a60040,PennController,50,0,frases,NULL,Selector,classificacao,Selection,neutra,1737652834847,negativa;neutra;positiva
1737653235,bc2584302fffead698e1809107a60040,PennController,50,0,frases,NULL,PennController,51,_Trial_,End,1737652834847,NULL
1737653235,bc2584302fffead698e1809107a60040,PennController,51,0,frases,NULL,PennController,52,_Trial_,Start,1737652834847,NULL
1737653235,bc2584302fffead698e1809107a60040,PennController,51,0,frases,NULL,Selector,classificacao,Selection,negativa,1737652838079,negativa;neutra;positiva
1737653235,bc2584302fffead698e1809107a60040,PennController,51,0,frases,NULL,PennController,52,_Trial_,End,1737652838080,NULL
1737653235,bc2584302fffead698e1809107a60040,PennController,52,0,frases,NULL,PennController,53,_Trial_,Start,1737652838080,NULL
1737653235,bc2584302fffead698e1809107a60040,PennController,52,0,frases,NULL,Selector,classificacao,Selection,neutra,1737652851279,negativa;neutra;positiva
1737653235,bc2584302fffead698e1809107a60040,PennController,52,0,frases,NULL,PennController,53,_Trial_,End,1737652851279,NULL
1737653235,bc2584302fffead698e1809107a60040,PennController,53,0,frases,NULL,PennController,54,_Trial_,Start,1737652851280,NULL
1737653235,bc2584302fffead698e1809107a60040,PennController,53,0,frases,NULL,Selector,classificacao,Selection,negativa,1737652855720,negativa;neutra;positiva
1737653235,bc2584302fffead698e1809107a60040,PennController,53,0,frases,NULL,PennController,54,_Trial_,End,1737652855721,NULL
1737653235,bc2584302fffead698e1809107a60040,PennController,54,0,frases,NULL,PennController,55,_Trial_,Start,1737652855721,NULL
1737653235,bc2584302fffead698e1809107a60040,PennController,54,0,frases,NULL,Selector,classificacao,Selection,positiva,1737652860520,negativa;neutra;positiva
1737653235,bc2584302fffead698e1809107a60040,PennController,54,0,frases,NULL,PennController,55,_Trial_,End,1737652860520,NULL
1737653235,bc2584302fffead698e1809107a60040,PennController,55,0,frases,NULL,PennController,56,_Trial_,Start,1737652860521,NULL
1737653235,bc2584302fffead698e1809107a60040,PennController,55,0,frases,NULL,Selector,classificacao,Selection,positiva,1737652864888,negativa;neutra;positiva
1737653235,bc2584302fffead698e1809107a60040,PennController,55,0,frases,NULL,PennController,56,_Trial_,End,1737652864889,NULL
1737653235,bc2584302fffead698e1809107a60040,PennController,56,0,frases,NULL,PennController,57,_Trial_,Start,1737652864889,NULL
1737653235,bc2584302fffead698e1809107a60040,PennController,56,0,frases,NULL,Selector,classificacao,Selection,positiva,1737652868151,negativa;neutra;positiva
1737653235,bc2584302fffead698e1809107a60040,PennController,56,0,frases,NULL,PennController,57,_Trial_,End,1737652868152,NULL
1737653235,bc2584302fffead698e1809107a60040,PennController,57,0,frases,NULL,PennController,58,_Trial_,Start,1737652868153,NULL
1737653235,bc2584302fffead698e1809107a60040,PennController,57,0,frases,NULL,Selector,classificacao,Selection,neutra,1737652871198,negativa;neutra;positiva
1737653235,bc2584302fffead698e1809107a60040,PennController,57,0,frases,NULL,PennController,58,_Trial_,End,1737652871199,NULL
1737653235,bc2584302fffead698e1809107a60040,PennController,58,0,frases,NULL,PennController,59,_Trial_,Start,1737652871199,NULL
1737653235,bc2584302fffead698e1809107a60040,PennController,58,0,frases,NULL,Selector,classificacao,Selection,negativa,1737652875000,negativa;neutra;positiva
1737653235,bc2584302fffead698e1809107a60040,PennController,58,0,frases,NULL,PennController,59,_Trial_,End,1737652875001,NULL
1737653235,bc2584302fffead698e1809107a60040,PennController,59,0,frases,NULL,PennController,60,_Trial_,Start,1737652875001,NULL
1737653235,bc2584302fffead698e1809107a60040,PennController,59,0,frases,NULL,Selector,classificacao,Selection,neutra,1737652879198,negativa;neutra;positiva
1737653235,bc2584302fffead698e1809107a60040,PennController,59,0,frases,NULL,PennController,60,_Trial_,End,1737652879199,NULL
1737653235,bc2584302fffead698e1809107a60040,PennController,60,0,frases,NULL,PennController,61,_Trial_,Start,1737652879200,NULL
1737653235,bc2584302fffead698e1809107a60040,PennController,60,0,frases,NULL,Selector,classificacao,Selection,positiva,1737652882384,negativa;neutra;positiva
1737653235,bc2584302fffead698e1809107a60040,PennController,60,0,frases,NULL,PennController,61,_Trial_,End,1737652882385,NULL
1737653235,bc2584302fffead698e1809107a60040,PennController,61,0,frases,NULL,PennController,62,_Trial_,Start,1737652882386,NULL
1737653235,bc2584302fffead698e1809107a60040,PennController,61,0,frases,NULL,Selector,classificacao,Selection,negativa,1737652887415,negativa;neutra;positiva
1737653235,bc2584302fffead698e1809107a60040,PennController,61,0,frases,NULL,PennController,62,_Trial_,End,1737652887416,NULL
1737653235,bc2584302fffead698e1809107a60040,PennController,62,0,frases,NULL,PennController,63,_Trial_,Start,1737652887416,NULL
1737653235,bc2584302fffead698e1809107a60040,PennController,62,0,frases,NULL,Selector,classificacao,Selection,negativa,1737652889032,negativa;neutra;positiva
1737653235,bc2584302fffead698e1809107a60040,PennController,62,0,frases,NULL,PennController,63,_Trial_,End,1737652889032,NULL
1737653235,bc2584302fffead698e1809107a60040,PennController,63,0,frases,NULL,PennController,64,_Trial_,Start,1737652889033,NULL
1737653235,bc2584302fffead698e1809107a60040,PennController,63,0,frases,NULL,Selector,classificacao,Selection,negativa,1737652892951,negativa;neutra;positiva
1737653235,bc2584302fffead698e1809107a60040,PennController,63,0,frases,NULL,PennController,64,_Trial_,End,1737652892951,NULL
1737653235,bc2584302fffead698e1809107a60040,PennController,64,0,frases,NULL,PennController,65,_Trial_,Start,1737652892952,NULL
1737653235,bc2584302fffead698e1809107a60040,PennController,64,0,frases,NULL,Selector,classificacao,Selection,neutra,1737652894630,negativa;neutra;positiva
1737653235,bc2584302fffead698e1809107a60040,PennController,64,0,frases,NULL,PennController,65,_Trial_,End,1737652894631,NULL
1737653235,bc2584302fffead698e1809107a60040,PennController,65,0,frases,NULL,PennController,66,_Trial_,Start,1737652894632,NULL
1737653235,bc2584302fffead698e1809107a60040,PennController,65,0,frases,NULL,Selector,classificacao,Selection,negativa,1737652895863,negativa;neutra;positiva
1737653235,bc2584302fffead698e1809107a60040,PennController,65,0,frases,NULL,PennController,66,_Trial_,End,1737652895863,NULL
1737653235,bc2584302fffead698e1809107a60040,PennController,66,0,frases,NULL,PennController,67,_Trial_,Start,1737652895864,NULL
1737653235,bc2584302fffead698e1809107a60040,PennController,66,0,frases,NULL,Selector,classificacao,Selection,positiva,1737652899136,negativa;neutra;positiva
1737653235,bc2584302fffead698e1809107a60040,PennController,66,0,frases,NULL,PennController,67,_Trial_,End,1737652899137,NULL
1737653235,bc2584302fffead698e1809107a60040,PennController,67,0,frases,NULL,PennController,68,_Trial_,Start,1737652899138,NULL
1737653235,bc2584302fffead698e1809107a60040,PennController,67,0,frases,NULL,Selector,classificacao,Selection,positiva,1737652901886,negativa;neutra;positiva
1737653235,bc2584302fffead698e1809107a60040,PennController,67,0,frases,NULL,PennController,68,_Trial_,End,1737652901887,NULL
1737653235,bc2584302fffead698e1809107a60040,PennController,68,0,frases,NULL,PennController,69,_Trial_,Start,1737652901888,NULL
1737653235,bc2584302fffead698e1809107a60040,PennController,68,0,frases,NULL,Selector,classificacao,Selection,negativa,1737652905127,negativa;neutra;positiva
1737653235,bc2584302fffead698e1809107a60040,PennController,68,0,frases,NULL,PennController,69,_Trial_,End,1737652905128,NULL
1737653235,bc2584302fffead698e1809107a60040,PennController,69,0,frases,NULL,PennController,70,_Trial_,Start,1737652905128,NULL
1737653235,bc2584302fffead698e1809107a60040,PennController,69,0,frases,NULL,Selector,classificacao,Selection,negativa,1737652913144,negativa;neutra;positiva
1737653235,bc2584302fffead698e1809107a60040,PennController,69,0,frases,NULL,PennController,70,_Trial_,End,1737652913144,NULL
1737653235,bc2584302fffead698e1809107a60040,PennController,70,0,frases,NULL,PennController,71,_Trial_,Start,1737652913145,NULL
1737653235,bc2584302fffead698e1809107a60040,PennController,70,0,frases,NULL,Selector,classificacao,Selection,negativa,1737652915886,negativa;neutra;positiva
1737653235,bc2584302fffead698e1809107a60040,PennController,70,0,frases,NULL,PennController,71,_Trial_,End,1737652915887,NULL
1737653235,bc2584302fffead698e1809107a60040,PennController,71,0,frases,NULL,PennController,72,_Trial_,Start,1737652915887,NULL
1737653235,bc2584302fffead698e1809107a60040,PennController,71,0,frases,NULL,Selector,classificacao,Selection,positiva,1737652918006,negativa;neutra;positiva
1737653235,bc2584302fffead698e1809107a60040,PennController,71,0,frases,NULL,PennController,72,_Trial_,End,1737652918007,NULL
1737653235,bc2584302fffead698e1809107a60040,PennController,72,0,frases,NULL,PennController,73,_Trial_,Start,1737652918008,NULL
1737653235,bc2584302fffead698e1809107a60040,PennController,72,0,frases,NULL,Selector,classificacao,Selection,negativa,1737652920295,negativa;neutra;positiva
1737653235,bc2584302fffead698e1809107a60040,PennController,72,0,frases,NULL,PennController,73,_Trial_,End,1737652920295,NULL
1737653235,bc2584302fffead698e1809107a60040,PennController,73,0,frases,NULL,PennController,74,_Trial_,Start,1737652920297,NULL
1737653235,bc2584302fffead698e1809107a60040,PennController,73,0,frases,NULL,Selector,classificacao,Selection,neutra,1737652922807,negativa;neutra;positiva
1737653235,bc2584302fffead698e1809107a60040,PennController,73,0,frases,NULL,PennController,74,_Trial_,End,1737652922808,NULL
1737653235,bc2584302fffead698e1809107a60040,PennController,74,0,frases,NULL,PennController,75,_Trial_,Start,1737652922808,NULL
1737653235,bc2584302fffead698e1809107a60040,PennController,74,0,frases,NULL,Selector,classificacao,Selection,positiva,1737652929624,negativa;neutra;positiva
1737653235,bc2584302fffead698e1809107a60040,PennController,74,0,frases,NULL,PennController,75,_Trial_,End,1737652929625,NULL
1737653235,bc2584302fffead698e1809107a60040,PennController,75,0,frases,NULL,PennController,76,_Trial_,Start,1737652929626,NULL
1737653235,bc2584302fffead698e1809107a60040,PennController,75,0,frases,NULL,Selector,classificacao,Selection,positiva,1737652931471,negativa;neutra;positiva
1737653235,bc2584302fffead698e1809107a60040,PennController,75,0,frases,NULL,PennController,76,_Trial_,End,1737652931471,NULL
1737653235,bc2584302fffead698e1809107a60040,PennController,76,0,frases,NULL,PennController,77,_Trial_,Start,1737652931472,NULL
1737653235,bc2584302fffead698e1809107a60040,PennController,76,0,frases,NULL,Selector,classificacao,Selection,negativa,1737652950072,negativa;neutra;positiva
1737653235,bc2584302fffead698e1809107a60040,PennController,76,0,frases,NULL,PennController,77,_Trial_,End,1737652950073,NULL
1737653235,bc2584302fffead698e1809107a60040,PennController,77,0,frases,NULL,PennController,78,_Trial_,Start,1737652950073,NULL
1737653235,bc2584302fffead698e1809107a60040,PennController,77,0,frases,NULL,Selector,classificacao,Selection,positiva,1737652952792,negativa;neutra;positiva
1737653235,bc2584302fffead698e1809107a60040,PennController,77,0,frases,NULL,PennController,78,_Trial_,End,1737652952792,NULL
1737653235,bc2584302fffead698e1809107a60040,PennController,78,0,frases,NULL,PennController,79,_Trial_,Start,1737652952793,NULL
1737653235,bc2584302fffead698e1809107a60040,PennController,78,0,frases,NULL,Selector,classificacao,Selection,neutra,1737652958606,negativa;neutra;positiva
1737653235,bc2584302fffead698e1809107a60040,PennController,78,0,frases,NULL,PennController,79,_Trial_,End,1737652958607,NULL
1737653235,bc2584302fffead698e1809107a60040,PennController,79,0,frases,NULL,PennController,80,_Trial_,Start,1737652958608,NULL
1737653235,bc2584302fffead698e1809107a60040,PennController,79,0,frases,NULL,Selector,classificacao,Selection,negativa,1737652967952,negativa;neutra;positiva
1737653235,bc2584302fffead698e1809107a60040,PennController,79,0,frases,NULL,PennController,80,_Trial_,End,1737652967952,NULL
1737653235,bc2584302fffead698e1809107a60040,PennController,80,0,frases,NULL,PennController,81,_Trial_,Start,1737652967953,NULL
1737653235,bc2584302fffead698e1809107a60040,PennController,80,0,frases,NULL,Selector,classificacao,Selection,neutra,1737652970206,negativa;neutra;positiva
1737653235,bc2584302fffead698e1809107a60040,PennController,80,0,frases,NULL,PennController,81,_Trial_,End,1737652970207,NULL
1737653235,bc2584302fffead698e1809107a60040,PennController,81,0,frases,NULL,PennController,82,_Trial_,Start,1737652970207,NULL
1737653235,bc2584302fffead698e1809107a60040,PennController,81,0,frases,NULL,Selector,classificacao,Selection,positiva,1737652972247,negativa;neutra;positiva
1737653235,bc2584302fffead698e1809107a60040,PennController,81,0,frases,NULL,PennController,82,_Trial_,End,1737652972248,NULL
1737653235,bc2584302fffead698e1809107a60040,PennController,82,0,frases,NULL,PennController,83,_Trial_,Start,1737652972248,NULL
1737653235,bc2584302fffead698e1809107a60040,PennController,82,0,frases,NULL,Selector,classificacao,Selection,negativa,1737652975775,negativa;neutra;positiva
1737653235,bc2584302fffead698e1809107a60040,PennController,82,0,frases,NULL,PennController,83,_Trial_,End,1737652975776,NULL
1737653235,bc2584302fffead698e1809107a60040,PennController,83,0,frases,NULL,PennController,84,_Trial_,Start,1737652975776,NULL
1737653235,bc2584302fffead698e1809107a60040,PennController,83,0,frases,NULL,Selector,classificacao,Selection,neutra,1737652977224,negativa;neutra;positiva
1737653235,bc2584302fffead698e1809107a60040,PennController,83,0,frases,NULL,PennController,84,_Trial_,End,1737652977224,NULL
1737653235,bc2584302fffead698e1809107a60040,PennController,84,0,frases,NULL,PennController,85,_Trial_,Start,1737652977225,NULL
1737653235,bc2584302fffead698e1809107a60040,PennController,84,0,frases,NULL,Selector,classificacao,Selection,neutra,1737652979038,negativa;neutra;positiva
1737653235,bc2584302fffead698e1809107a60040,PennController,84,0,frases,NULL,PennController,85,_Trial_,End,1737652979039,NULL
1737653235,bc2584302fffead698e1809107a60040,PennController,85,0,frases,NULL,PennController,86,_Trial_,Start,1737652979039,NULL
1737653235,bc2584302fffead698e1809107a60040,PennController,85,0,frases,NULL,Selector,classificacao,Selection,positiva,1737652981000,negativa;neutra;positiva
1737653235,bc2584302fffead698e1809107a60040,PennController,85,0,frases,NULL,PennController,86,_Trial_,End,1737652981001,NULL
1737653235,bc2584302fffead698e1809107a60040,PennController,86,0,frases,NULL,PennController,87,_Trial_,Start,1737652981001,NULL
1737653235,bc2584302fffead698e1809107a60040,PennController,86,0,frases,NULL,Selector,classificacao,Selection,neutra,1737652983575,negativa;neutra;positiva
1737653235,bc2584302fffead698e1809107a60040,PennController,86,0,frases,NULL,PennController,87,_Trial_,End,1737652983576,NULL
1737653235,bc2584302fffead698e1809107a60040,PennController,87,0,frases,NULL,PennController,88,_Trial_,Start,1737652983577,NULL
1737653235,bc2584302fffead698e1809107a60040,PennController,87,0,frases,NULL,Selector,classificacao,Selection,neutra,1737652985958,negativa;neutra;positiva
1737653235,bc2584302fffead698e1809107a60040,PennController,87,0,frases,NULL,PennController,88,_Trial_,End,1737652985959,NULL
1737653235,bc2584302fffead698e1809107a60040,PennController,88,0,frases,NULL,PennController,89,_Trial_,Start,1737652985960,NULL
1737653235,bc2584302fffead698e1809107a60040,PennController,88,0,frases,NULL,Selector,classificacao,Selection,neutra,1737652993616,negativa;neutra;positiva
1737653235,bc2584302fffead698e1809107a60040,PennController,88,0,frases,NULL,PennController,89,_Trial_,End,1737652993617,NULL
1737653235,bc2584302fffead698e1809107a60040,PennController,89,0,frases,NULL,PennController,90,_Trial_,Start,1737652993617,NULL
1737653235,bc2584302fffead698e1809107a60040,PennController,89,0,frases,NULL,Selector,classificacao,Selection,negativa,1737652995256,negativa;neutra;positiva
1737653235,bc2584302fffead698e1809107a60040,PennController,89,0,frases,NULL,PennController,90,_Trial_,End,1737652995256,NULL
1737653235,bc2584302fffead698e1809107a60040,PennController,90,0,frases,NULL,PennController,91,_Trial_,Start,1737652995257,NULL
1737653235,bc2584302fffead698e1809107a60040,PennController,90,0,frases,NULL,Selector,classificacao,Selection,neutra,1737652999333,negativa;neutra;positiva
1737653235,bc2584302fffead698e1809107a60040,PennController,90,0,frases,NULL,PennController,91,_Trial_,End,1737652999334,NULL
1737653235,bc2584302fffead698e1809107a60040,PennController,91,0,frases,NULL,PennController,92,_Trial_,Start,1737652999334,NULL
1737653235,bc2584302fffead698e1809107a60040,PennController,91,0,frases,NULL,Selector,classificacao,Selection,neutra,1737653001063,negativa;neutra;positiva
1737653235,bc2584302fffead698e1809107a60040,PennController,91,0,frases,NULL,PennController,92,_Trial_,End,1737653001064,NULL
1737653235,bc2584302fffead698e1809107a60040,PennController,92,0,frases,NULL,PennController,93,_Trial_,Start,1737653001064,NULL
1737653235,bc2584302fffead698e1809107a60040,PennController,92,0,frases,NULL,Selector,classificacao,Selection,negativa,1737653004790,negativa;neutra;positiva
1737653235,bc2584302fffead698e1809107a60040,PennController,92,0,frases,NULL,PennController,93,_Trial_,End,1737653004790,NULL
1737653235,bc2584302fffead698e1809107a60040,PennController,93,0,frases,NULL,PennController,94,_Trial_,Start,1737653004790,NULL
1737653235,bc2584302fffead698e1809107a60040,PennController,93,0,frases,NULL,Selector,classificacao,Selection,neutra,1737653006855,negativa;neutra;positiva
1737653235,bc2584302fffead698e1809107a60040,PennController,93,0,frases,NULL,PennController,94,_Trial_,End,1737653006856,NULL
1737653235,bc2584302fffead698e1809107a60040,PennController,94,0,frases,NULL,PennController,95,_Trial_,Start,1737653006856,NULL
1737653235,bc2584302fffead698e1809107a60040,PennController,94,0,frases,NULL,Selector,classificacao,Selection,negativa,1737653014615,negativa;neutra;positiva
1737653235,bc2584302fffead698e1809107a60040,PennController,94,0,frases,NULL,PennController,95,_Trial_,End,1737653014616,NULL
1737653235,bc2584302fffead698e1809107a60040,PennController,95,0,frases,NULL,PennController,96,_Trial_,Start,1737653014616,NULL
1737653235,bc2584302fffead698e1809107a60040,PennController,95,0,frases,NULL,Selector,classificacao,Selection,neutra,1737653019206,negativa;neutra;positiva
1737653235,bc2584302fffead698e1809107a60040,PennController,95,0,frases,NULL,PennController,96,_Trial_,End,1737653019206,NULL
1737653235,bc2584302fffead698e1809107a60040,PennController,96,0,frases,NULL,PennController,97,_Trial_,Start,1737653019207,NULL
1737653235,bc2584302fffead698e1809107a60040,PennController,96,0,frases,NULL,Selector,classificacao,Selection,neutra,1737653021302,negativa;neutra;positiva
1737653235,bc2584302fffead698e1809107a60040,PennController,96,0,frases,NULL,PennController,97,_Trial_,End,1737653021303,NULL
1737653235,bc2584302fffead698e1809107a60040,PennController,97,0,frases,NULL,PennController,98,_Trial_,Start,1737653021303,NULL
1737653235,bc2584302fffead698e1809107a60040,PennController,97,0,frases,NULL,Selector,classificacao,Selection,positiva,1737653027935,negativa;neutra;positiva
1737653235,bc2584302fffead698e1809107a60040,PennController,97,0,frases,NULL,PennController,98,_Trial_,End,1737653027936,NULL
1737653235,bc2584302fffead698e1809107a60040,PennController,98,0,frases,NULL,PennController,99,_Trial_,Start,1737653027936,NULL
1737653235,bc2584302fffead698e1809107a60040,PennController,98,0,frases,NULL,Selector,classificacao,Selection,negativa,1737653031303,negativa;neutra;positiva
1737653235,bc2584302fffead698e1809107a60040,PennController,98,0,frases,NULL,PennController,99,_Trial_,End,1737653031304,NULL
1737653235,bc2584302fffead698e1809107a60040,PennController,99,0,frases,NULL,PennController,100,_Trial_,Start,1737653031304,NULL
1737653235,bc2584302fffead698e1809107a60040,PennController,99,0,frases,NULL,Selector,classificacao,Selection,negativa,1737653034094,negativa;neutra;positiva
1737653235,bc2584302fffead698e1809107a60040,PennController,99,0,frases,NULL,PennController,100,_Trial_,End,1737653034095,NULL
1737653235,bc2584302fffead698e1809107a60040,PennController,100,0,frases,NULL,PennController,101,_Trial_,Start,1737653034095,NULL
1737653235,bc2584302fffead698e1809107a60040,PennController,100,0,frases,NULL,Selector,classificacao,Selection,positiva,1737653037066,negativa;neutra;positiva
1737653235,bc2584302fffead698e1809107a60040,PennController,100,0,frases,NULL,PennController,101,_Trial_,End,1737653037066,NULL
1737653235,bc2584302fffead698e1809107a60040,PennController,101,0,frases,NULL,PennController,102,_Trial_,Start,1737653037067,NULL
1737653235,bc2584302fffead698e1809107a60040,PennController,101,0,frases,NULL,Selector,classificacao,Selection,negativa,1737653039312,negativa;neutra;positiva
1737653235,bc2584302fffead698e1809107a60040,PennController,101,0,frases,NULL,PennController,102,_Trial_,End,1737653039313,NULL
1737653235,bc2584302fffead698e1809107a60040,PennController,102,0,frases,NULL,PennController,103,_Trial_,Start,1737653039313,NULL
1737653235,bc2584302fffead698e1809107a60040,PennController,102,0,frases,NULL,Selector,classificacao,Selection,positiva,1737653041935,negativa;neutra;positiva
1737653235,bc2584302fffead698e1809107a60040,PennController,102,0,frases,NULL,PennController,103,_Trial_,End,1737653041935,NULL
1737653235,bc2584302fffead698e1809107a60040,PennController,103,0,frases,NULL,PennController,104,_Trial_,Start,1737653041936,NULL
1737653235,bc2584302fffead698e1809107a60040,PennController,103,0,frases,NULL,Selector,classificacao,Selection,positiva,1737653043735,negativa;neutra;positiva
1737653235,bc2584302fffead698e1809107a60040,PennController,103,0,frases,NULL,PennController,104,_Trial_,End,1737653043736,NULL
1737653235,bc2584302fffead698e1809107a60040,PennController,104,0,frases,NULL,PennController,105,_Trial_,Start,1737653043736,NULL
1737653235,bc2584302fffead698e1809107a60040,PennController,104,0,frases,NULL,Selector,classificacao,Selection,negativa,1737653047191,negativa;neutra;positiva
1737653235,bc2584302fffead698e1809107a60040,PennController,104,0,frases,NULL,PennController,105,_Trial_,End,1737653047192,NULL
1737653235,bc2584302fffead698e1809107a60040,PennController,105,0,frases,NULL,PennController,106,_Trial_,Start,1737653047192,NULL
1737653235,bc2584302fffead698e1809107a60040,PennController,105,0,frases,NULL,Selector,classificacao,Selection,negativa,1737653051270,negativa;neutra;positiva
1737653235,bc2584302fffead698e1809107a60040,PennController,105,0,frases,NULL,PennController,106,_Trial_,End,1737653051271,NULL
1737653235,bc2584302fffead698e1809107a60040,PennController,106,0,frases,NULL,PennController,107,_Trial_,Start,1737653051271,NULL
1737653235,bc2584302fffead698e1809107a60040,PennController,106,0,frases,NULL,Selector,classificacao,Selection,negativa,1737653060134,negativa;neutra;positiva
1737653235,bc2584302fffead698e1809107a60040,PennController,106,0,frases,NULL,PennController,107,_Trial_,End,1737653060135,NULL
1737653235,bc2584302fffead698e1809107a60040,PennController,107,0,frases,NULL,PennController,108,_Trial_,Start,1737653060135,NULL
1737653235,bc2584302fffead698e1809107a60040,PennController,107,0,frases,NULL,Selector,classificacao,Selection,positiva,1737653061960,negativa;neutra;positiva
1737653235,bc2584302fffead698e1809107a60040,PennController,107,0,frases,NULL,PennController,108,_Trial_,End,1737653061960,NULL
1737653235,bc2584302fffead698e1809107a60040,PennController,108,0,frases,NULL,PennController,109,_Trial_,Start,1737653061961,NULL
1737653235,bc2584302fffead698e1809107a60040,PennController,108,0,frases,NULL,Selector,classificacao,Selection,negativa,1737653064958,negativa;neutra;positiva
1737653235,bc2584302fffead698e1809107a60040,PennController,108,0,frases,NULL,PennController,109,_Trial_,End,1737653064958,NULL
1737653235,bc2584302fffead698e1809107a60040,PennController,109,0,frases,NULL,PennController,110,_Trial_,Start,1737653064959,NULL
1737653235,bc2584302fffead698e1809107a60040,PennController,109,0,frases,NULL,Selector,classificacao,Selection,positiva,1737653066823,negativa;neutra;positiva
1737653235,bc2584302fffead698e1809107a60040,PennController,109,0,frases,NULL,PennController,110,_Trial_,End,1737653066823,NULL
1737653235,bc2584302fffead698e1809107a60040,PennController,110,0,frases,NULL,PennController,111,_Trial_,Start,1737653066824,NULL
1737653235,bc2584302fffead698e1809107a60040,PennController,110,0,frases,NULL,Selector,classificacao,Selection,negativa,1737653071471,negativa;neutra;positiva
1737653235,bc2584302fffead698e1809107a60040,PennController,110,0,frases,NULL,PennController,111,_Trial_,End,1737653071472,NULL
1737653235,bc2584302fffead698e1809107a60040,PennController,111,0,frases,NULL,PennController,112,_Trial_,Start,1737653071472,NULL
1737653235,bc2584302fffead698e1809107a60040,PennController,111,0,frases,NULL,Selector,classificacao,Selection,positiva,1737653073855,negativa;neutra;positiva
1737653235,bc2584302fffead698e1809107a60040,PennController,111,0,frases,NULL,PennController,112,_Trial_,End,1737653073856,NULL
1737653235,bc2584302fffead698e1809107a60040,PennController,112,0,frases,NULL,PennController,113,_Trial_,Start,1737653073856,NULL
1737653235,bc2584302fffead698e1809107a60040,PennController,112,0,frases,NULL,Selector,classificacao,Selection,positiva,1737653075543,negativa;neutra;positiva
1737653235,bc2584302fffead698e1809107a60040,PennController,112,0,frases,NULL,PennController,113,_Trial_,End,1737653075543,NULL
1737653235,bc2584302fffead698e1809107a60040,PennController,113,0,frases,NULL,PennController,114,_Trial_,Start,1737653075543,NULL
1737653235,bc2584302fffead698e1809107a60040,PennController,113,0,frases,NULL,Selector,classificacao,Selection,negativa,1737653077464,negativa;neutra;positiva
1737653235,bc2584302fffead698e1809107a60040,PennController,113,0,frases,NULL,PennController,114,_Trial_,End,1737653077465,NULL
1737653235,bc2584302fffead698e1809107a60040,PennController,114,0,frases,NULL,PennController,115,_Trial_,Start,1737653077465,NULL
1737653235,bc2584302fffead698e1809107a60040,PennController,114,0,frases,NULL,Selector,classificacao,Selection,positiva,1737653081991,negativa;neutra;positiva
1737653235,bc2584302fffead698e1809107a60040,PennController,114,0,frases,NULL,PennController,115,_Trial_,End,1737653081992,NULL
1737653235,bc2584302fffead698e1809107a60040,PennController,115,0,frases,NULL,PennController,116,_Trial_,Start,1737653081993,NULL
1737653235,bc2584302fffead698e1809107a60040,PennController,115,0,frases,NULL,Selector,classificacao,Selection,negativa,1737653084767,negativa;neutra;positiva
1737653235,bc2584302fffead698e1809107a60040,PennController,115,0,frases,NULL,PennController,116,_Trial_,End,1737653084768,NULL
1737653235,bc2584302fffead698e1809107a60040,PennController,116,0,frases,NULL,PennController,117,_Trial_,Start,1737653084768,NULL
1737653235,bc2584302fffead698e1809107a60040,PennController,116,0,frases,NULL,Selector,classificacao,Selection,positiva,1737653088814,negativa;neutra;positiva
1737653235,bc2584302fffead698e1809107a60040,PennController,116,0,frases,NULL,PennController,117,_Trial_,End,1737653088815,NULL
1737653235,bc2584302fffead698e1809107a60040,PennController,117,0,frases,NULL,PennController,118,_Trial_,Start,1737653088815,NULL
1737653235,bc2584302fffead698e1809107a60040,PennController,117,0,frases,NULL,Selector,classificacao,Selection,positiva,1737653092270,negativa;neutra;positiva
1737653235,bc2584302fffead698e1809107a60040,PennController,117,0,frases,NULL,PennController,118,_Trial_,End,1737653092271,NULL
1737653235,bc2584302fffead698e1809107a60040,PennController,118,0,frases,NULL,PennController,119,_Trial_,Start,1737653092272,NULL
1737653235,bc2584302fffead698e1809107a60040,PennController,118,0,frases,NULL,Selector,classificacao,Selection,positiva,1737653095685,negativa;neutra;positiva
1737653235,bc2584302fffead698e1809107a60040,PennController,118,0,frases,NULL,PennController,119,_Trial_,End,1737653095686,NULL
1737653235,bc2584302fffead698e1809107a60040,PennController,119,0,frases,NULL,PennController,120,_Trial_,Start,1737653095686,NULL
1737653235,bc2584302fffead698e1809107a60040,PennController,119,0,frases,NULL,Selector,classificacao,Selection,neutra,1737653098046,negativa;neutra;positiva
1737653235,bc2584302fffead698e1809107a60040,PennController,119,0,frases,NULL,PennController,120,_Trial_,End,1737653098047,NULL
1737653235,bc2584302fffead698e1809107a60040,PennController,120,0,frases,NULL,PennController,121,_Trial_,Start,1737653098047,NULL
1737653235,bc2584302fffead698e1809107a60040,PennController,120,0,frases,NULL,Selector,classificacao,Selection,positiva,1737653109286,negativa;neutra;positiva
1737653235,bc2584302fffead698e1809107a60040,PennController,120,0,frases,NULL,PennController,121,_Trial_,End,1737653109287,NULL
1737653235,bc2584302fffead698e1809107a60040,PennController,121,0,frases,NULL,PennController,122,_Trial_,Start,1737653109288,NULL
1737653235,bc2584302fffead698e1809107a60040,PennController,121,0,frases,NULL,Selector,classificacao,Selection,neutra,1737653112454,negativa;neutra;positiva
1737653235,bc2584302fffead698e1809107a60040,PennController,121,0,frases,NULL,PennController,122,_Trial_,End,1737653112455,NULL
1737653235,bc2584302fffead698e1809107a60040,PennController,122,0,frases,NULL,PennController,123,_Trial_,Start,1737653112456,NULL
1737653235,bc2584302fffead698e1809107a60040,PennController,122,0,frases,NULL,Selector,classificacao,Selection,neutra,1737653115863,negativa;neutra;positiva
1737653235,bc2584302fffead698e1809107a60040,PennController,122,0,frases,NULL,PennController,123,_Trial_,End,1737653115864,NULL
1737653235,bc2584302fffead698e1809107a60040,PennController,123,0,frases,NULL,PennController,124,_Trial_,Start,1737653115864,NULL
1737653235,bc2584302fffead698e1809107a60040,PennController,123,0,frases,NULL,Selector,classificacao,Selection,positiva,1737653118432,negativa;neutra;positiva
1737653235,bc2584302fffead698e1809107a60040,PennController,123,0,frases,NULL,PennController,124,_Trial_,End,1737653118432,NULL
1737653235,bc2584302fffead698e1809107a60040,PennController,124,0,frases,NULL,PennController,125,_Trial_,Start,1737653118432,NULL
1737653235,bc2584302fffead698e1809107a60040,PennController,124,0,frases,NULL,Selector,classificacao,Selection,negativa,1737653121119,negativa;neutra;positiva
1737653235,bc2584302fffead698e1809107a60040,PennController,124,0,frases,NULL,PennController,125,_Trial_,End,1737653121119,NULL
1737653235,bc2584302fffead698e1809107a60040,PennController,125,0,frases,NULL,PennController,126,_Trial_,Start,1737653121120,NULL
1737653235,bc2584302fffead698e1809107a60040,PennController,125,0,frases,NULL,Selector,classificacao,Selection,positiva,1737653125696,negativa;neutra;positiva
1737653235,bc2584302fffead698e1809107a60040,PennController,125,0,frases,NULL,PennController,126,_Trial_,End,1737653125696,NULL
1737653235,bc2584302fffead698e1809107a60040,PennController,126,0,frases,NULL,PennController,127,_Trial_,Start,1737653125697,NULL
1737653235,bc2584302fffead698e1809107a60040,PennController,126,0,frases,NULL,Selector,classificacao,Selection,neutra,1737653131016,negativa;neutra;positiva
1737653235,bc2584302fffead698e1809107a60040,PennController,126,0,frases,NULL,PennController,127,_Trial_,End,1737653131017,NULL
1737653235,bc2584302fffead698e1809107a60040,PennController,127,0,frases,NULL,PennController,128,_Trial_,Start,1737653131017,NULL
1737653235,bc2584302fffead698e1809107a60040,PennController,127,0,frases,NULL,Selector,classificacao,Selection,positiva,1737653134845,negativa;neutra;positiva
1737653235,bc2584302fffead698e1809107a60040,PennController,127,0,frases,NULL,PennController,128,_Trial_,End,1737653134846,NULL
1737653235,bc2584302fffead698e1809107a60040,PennController,128,0,frases,NULL,PennController,129,_Trial_,Start,1737653134847,NULL
1737653235,bc2584302fffead698e1809107a60040,PennController,128,0,frases,NULL,Selector,classificacao,Selection,positiva,1737653136110,negativa;neutra;positiva
1737653235,bc2584302fffead698e1809107a60040,PennController,128,0,frases,NULL,PennController,129,_Trial_,End,1737653136111,NULL
1737653235,bc2584302fffead698e1809107a60040,PennController,129,0,frases,NULL,PennController,130,_Trial_,Start,1737653136111,NULL
1737653235,bc2584302fffead698e1809107a60040,PennController,129,0,frases,NULL,Selector,classificacao,Selection,positiva,1737653141135,negativa;neutra;positiva
1737653235,bc2584302fffead698e1809107a60040,PennController,129,0,frases,NULL,PennController,130,_Trial_,End,1737653141136,NULL
1737653235,bc2584302fffead698e1809107a60040,PennController,130,0,frases,NULL,PennController,131,_Trial_,Start,1737653141136,NULL
1737653235,bc2584302fffead698e1809107a60040,PennController,130,0,frases,NULL,Selector,classificacao,Selection,positiva,1737653144424,negativa;neutra;positiva
1737653235,bc2584302fffead698e1809107a60040,PennController,130,0,frases,NULL,PennController,131,_Trial_,End,1737653144424,NULL
1737653235,bc2584302fffead698e1809107a60040,PennController,131,0,frases,NULL,PennController,132,_Trial_,Start,1737653144425,NULL
1737653235,bc2584302fffead698e1809107a60040,PennController,131,0,frases,NULL,Selector,classificacao,Selection,negativa,1737653148734,negativa;neutra;positiva
1737653235,bc2584302fffead698e1809107a60040,PennController,131,0,frases,NULL,PennController,132,_Trial_,End,1737653148735,NULL
1737653235,bc2584302fffead698e1809107a60040,PennController,132,0,frases,NULL,PennController,133,_Trial_,Start,1737653148735,NULL
1737653235,bc2584302fffead698e1809107a60040,PennController,132,0,frases,NULL,Selector,classificacao,Selection,positiva,1737653152886,negativa;neutra;positiva
1737653235,bc2584302fffead698e1809107a60040,PennController,132,0,frases,NULL,PennController,133,_Trial_,End,1737653152887,NULL
1737653235,bc2584302fffead698e1809107a60040,PennController,133,0,frases,NULL,PennController,134,_Trial_,Start,1737653152887,NULL
1737653235,bc2584302fffead698e1809107a60040,PennController,133,0,frases,NULL,Selector,classificacao,Selection,positiva,1737653155968,negativa;neutra;positiva
1737653235,bc2584302fffead698e1809107a60040,PennController,133,0,frases,NULL,PennController,134,_Trial_,End,1737653155968,NULL
1737653235,bc2584302fffead698e1809107a60040,PennController,134,0,frases,NULL,PennController,135,_Trial_,Start,1737653155969,NULL
1737653235,bc2584302fffead698e1809107a60040,PennController,134,0,frases,NULL,Selector,classificacao,Selection,negativa,1737653163222,negativa;neutra;positiva
1737653235,bc2584302fffead698e1809107a60040,PennController,134,0,frases,NULL,PennController,135,_Trial_,End,1737653163223,NULL
1737653235,bc2584302fffead698e1809107a60040,PennController,135,0,frases,NULL,PennController,136,_Trial_,Start,1737653163224,NULL
1737653235,bc2584302fffead698e1809107a60040,PennController,135,0,frases,NULL,Selector,classificacao,Selection,negativa,1737653169486,negativa;neutra;positiva
1737653235,bc2584302fffead698e1809107a60040,PennController,135,0,frases,NULL,PennController,136,_Trial_,End,1737653169487,NULL
1737653235,bc2584302fffead698e1809107a60040,PennController,136,0,frases,NULL,PennController,137,_Trial_,Start,1737653169488,NULL
1737653235,bc2584302fffead698e1809107a60040,PennController,136,0,frases,NULL,Selector,classificacao,Selection,neutra,1737653173432,negativa;neutra;positiva
1737653235,bc2584302fffead698e1809107a60040,PennController,136,0,frases,NULL,PennController,137,_Trial_,End,1737653173433,NULL
1737653235,bc2584302fffead698e1809107a60040,PennController,137,0,frases,NULL,PennController,138,_Trial_,Start,1737653173433,NULL
1737653235,bc2584302fffead698e1809107a60040,PennController,137,0,frases,NULL,Selector,classificacao,Selection,neutra,1737653175479,negativa;neutra;positiva
1737653235,bc2584302fffead698e1809107a60040,PennController,137,0,frases,NULL,PennController,138,_Trial_,End,1737653175480,NULL
1737653235,bc2584302fffead698e1809107a60040,PennController,138,0,frases,NULL,PennController,139,_Trial_,Start,1737653175480,NULL
1737653235,bc2584302fffead698e1809107a60040,PennController,138,0,frases,NULL,Selector,classificacao,Selection,positiva,1737653177262,negativa;neutra;positiva
1737653235,bc2584302fffead698e1809107a60040,PennController,138,0,frases,NULL,PennController,139,_Trial_,End,1737653177263,NULL
1737653235,bc2584302fffead698e1809107a60040,PennController,139,0,frases,NULL,PennController,140,_Trial_,Start,1737653177263,NULL
1737653235,bc2584302fffead698e1809107a60040,PennController,139,0,frases,NULL,Selector,classificacao,Selection,negativa,1737653179639,negativa;neutra;positiva
1737653235,bc2584302fffead698e1809107a60040,PennController,139,0,frases,NULL,PennController,140,_Trial_,End,1737653179639,NULL
1737653235,bc2584302fffead698e1809107a60040,PennController,140,0,frases,NULL,PennController,141,_Trial_,Start,1737653179640,NULL
1737653235,bc2584302fffead698e1809107a60040,PennController,140,0,frases,NULL,Selector,classificacao,Selection,neutra,1737653182192,negativa;neutra;positiva
1737653235,bc2584302fffead698e1809107a60040,PennController,140,0,frases,NULL,PennController,141,_Trial_,End,1737653182192,NULL
1737653235,bc2584302fffead698e1809107a60040,PennController,141,0,frases,NULL,PennController,142,_Trial_,Start,1737653182192,NULL
1737653235,bc2584302fffead698e1809107a60040,PennController,141,0,frases,NULL,Selector,classificacao,Selection,neutra,1737653185526,negativa;neutra;positiva
1737653235,bc2584302fffead698e1809107a60040,PennController,141,0,frases,NULL,PennController,142,_Trial_,End,1737653185527,NULL
1737653235,bc2584302fffead698e1809107a60040,PennController,142,0,frases,NULL,PennController,143,_Trial_,Start,1737653185527,NULL
1737653235,bc2584302fffead698e1809107a60040,PennController,142,0,frases,NULL,Selector,classificacao,Selection,negativa,1737653191831,negativa;neutra;positiva
1737653235,bc2584302fffead698e1809107a60040,PennController,142,0,frases,NULL,PennController,143,_Trial_,End,1737653191831,NULL
1737653235,bc2584302fffead698e1809107a60040,PennController,143,0,frases,NULL,PennController,144,_Trial_,Start,1737653191833,NULL
1737653235,bc2584302fffead698e1809107a60040,PennController,143,0,frases,NULL,Selector,classificacao,Selection,positiva,1737653195510,negativa;neutra;positiva
1737653235,bc2584302fffead698e1809107a60040,PennController,143,0,frases,NULL,PennController,144,_Trial_,End,1737653195511,NULL
1737653235,bc2584302fffead698e1809107a60040,PennController,144,0,frases,NULL,PennController,145,_Trial_,Start,1737653195511,NULL
1737653235,bc2584302fffead698e1809107a60040,PennController,144,0,frases,NULL,Selector,classificacao,Selection,positiva,1737653196861,negativa;neutra;positiva
1737653235,bc2584302fffead698e1809107a60040,PennController,144,0,frases,NULL,PennController,145,_Trial_,End,1737653196863,NULL
1737653235,bc2584302fffead698e1809107a60040,PennController,145,0,frases,NULL,PennController,146,_Trial_,Start,1737653196863,NULL
1737653235,bc2584302fffead698e1809107a60040,PennController,145,0,frases,NULL,Selector,classificacao,Selection,neutra,1737653200750,negativa;neutra;positiva
1737653235,bc2584302fffead698e1809107a60040,PennController,145,0,frases,NULL,PennController,146,_Trial_,End,1737653200751,NULL
1737653235,bc2584302fffead698e1809107a60040,PennController,146,0,frases,NULL,PennController,147,_Trial_,Start,1737653200752,NULL
1737653235,bc2584302fffead698e1809107a60040,PennController,146,0,frases,NULL,Selector,classificacao,Selection,positiva,1737653202840,negativa;neutra;positiva
1737653235,bc2584302fffead698e1809107a60040,PennController,146,0,frases,NULL,PennController,147,_Trial_,End,1737653202841,NULL
1737653235,bc2584302fffead698e1809107a60040,PennController,147,0,frases,NULL,PennController,148,_Trial_,Start,1737653202841,NULL
1737653235,bc2584302fffead698e1809107a60040,PennController,147,0,frases,NULL,Selector,classificacao,Selection,positiva,1737653204478,negativa;neutra;positiva
1737653235,bc2584302fffead698e1809107a60040,PennController,147,0,frases,NULL,PennController,148,_Trial_,End,1737653204479,NULL
1737653235,bc2584302fffead698e1809107a60040,PennController,148,0,frases,NULL,PennController,149,_Trial_,Start,1737653204479,NULL
1737653235,bc2584302fffead698e1809107a60040,PennController,148,0,frases,NULL,Selector,classificacao,Selection,positiva,1737653206878,negativa;neutra;positiva
1737653235,bc2584302fffead698e1809107a60040,PennController,148,0,frases,NULL,PennController,149,_Trial_,End,1737653206878,NULL
1737653235,bc2584302fffead698e1809107a60040,PennController,149,0,frases,NULL,PennController,150,_Trial_,Start,1737653206879,NULL
1737653235,bc2584302fffead698e1809107a60040,PennController,149,0,frases,NULL,Selector,classificacao,Selection,neutra,1737653215351,negativa;neutra;positiva
1737653235,bc2584302fffead698e1809107a60040,PennController,149,0,frases,NULL,PennController,150,_Trial_,End,1737653215352,NULL
1737653235,bc2584302fffead698e1809107a60040,PennController,150,0,frases,NULL,PennController,151,_Trial_,Start,1737653215353,NULL
1737653235,bc2584302fffead698e1809107a60040,PennController,150,0,frases,NULL,Selector,classificacao,Selection,positiva,1737653220583,negativa;neutra;positiva
1737653235,bc2584302fffead698e1809107a60040,PennController,150,0,frases,NULL,PennController,151,_Trial_,End,1737653220584,NULL
1737653235,bc2584302fffead698e1809107a60040,PennController,151,0,frases,NULL,PennController,152,_Trial_,Start,1737653220585,NULL
1737653235,bc2584302fffead698e1809107a60040,PennController,151,0,frases,NULL,Selector,classificacao,Selection,positiva,1737653223502,negativa;neutra;positiva
1737653235,bc2584302fffead698e1809107a60040,PennController,151,0,frases,NULL,PennController,152,_Trial_,End,1737653223503,NULL
1737653235,bc2584302fffead698e1809107a60040,PennController,152,0,frases,NULL,PennController,153,_Trial_,Start,1737653223504,NULL
1737653235,bc2584302fffead698e1809107a60040,PennController,152,0,frases,NULL,Selector,classificacao,Selection,positiva,1737653225206,negativa;neutra;positiva
1737653235,bc2584302fffead698e1809107a60040,PennController,152,0,frases,NULL,PennController,153,_Trial_,End,1737653225207,NULL
1737653235,bc2584302fffead698e1809107a60040,PennController,153,0,frases,NULL,PennController,154,_Trial_,Start,1737653225207,NULL
1737653235,bc2584302fffead698e1809107a60040,PennController,153,0,frases,NULL,Selector,classificacao,Selection,neutra,1737653233535,negativa;neutra;positiva
1737653235,bc2584302fffead698e1809107a60040,PennController,153,0,frases,NULL,PennController,154,_Trial_,End,1737653233535,NULL
1737653235,bc2584302fffead698e1809107a60040,PennController,154,0,agradecimento,NULL,PennController,4,_Trial_,Start,1737653233536,NULL
1737653235,bc2584302fffead698e1809107a60040,PennController,154,0,agradecimento,NULL,PennController,4,_Trial_,End,1737653234774,NULL
#
# Results on Thu, 30 Jan 2025 14:22:15 GMT
# USER AGENT: Mozilla/5.0 (Windows NT 10.0; Win64; x64) AppleWebKit/537.36 (KHTML, like Gecko) Chrome/132.0.0.0 Safari/537.36
# Design number was non-random = 1
#
# Columns below this comment are as follows:
# 1. Results reception time.
# 2. MD5 hash of participant's IP address.
# 3. Controller name.
# 4. Order number of item.
# 5. Inner element number.
# 6. Label.
# 7. Latin Square Group.
# 8. PennElementType.
# 9. PennElementName.
# 10. Parameter.
# 11. Value.
# 12. EventTime.
# 13. Comments.
1738246935,79d2f0d2275aacd4e4e71a607a16f228,PennController,0,0,TCLE,NULL,PennController,0,_Trial_,Start,1738246190946,NULL
1738246935,79d2f0d2275aacd4e4e71a607a16f228,PennController,0,0,TCLE,NULL,PennController,0,_Trial_,End,1738246194400,NULL
1738246935,79d2f0d2275aacd4e4e71a607a16f228,PennController,3,0,instrucoes,NULL,PennController,3,_Trial_,Start,1738246194403,NULL
1738246935,79d2f0d2275aacd4e4e71a607a16f228,PennController,3,0,instrucoes,NULL,PennController,3,_Trial_,End,1738246195323,NULL
1738246935,79d2f0d2275aacd4e4e71a607a16f228,PennController,1,0,genero,NULL,PennController,1,_Trial_,Start,1738246195325,NULL
1738246935,79d2f0d2275aacd4e4e71a607a16f228,PennController,1,0,genero,NULL,DropDown,selecionaGenero,Selected,Feminino,1738246197348,1
1738246935,79d2f0d2275aacd4e4e71a607a16f228,PennController,1,0,genero,NULL,PennController,1,_Trial_,End,1738246198546,NULL
1738246935,79d2f0d2275aacd4e4e71a607a16f228,PennController,4,0,frases,NULL,PennController,5,_Trial_,Start,1738246198547,NULL
1738246935,79d2f0d2275aacd4e4e71a607a16f228,PennController,4,0,frases,NULL,Selector,classificacao,Selection,neutra,1738246204921,negativa;neutra;positiva
1738246935,79d2f0d2275aacd4e4e71a607a16f228,PennController,4,0,frases,NULL,PennController,5,_Trial_,End,1738246204923,NULL
1738246935,79d2f0d2275aacd4e4e71a607a16f228,PennController,5,0,frases,NULL,PennController,6,_Trial_,Start,1738246204923,NULL
1738246935,79d2f0d2275aacd4e4e71a607a16f228,PennController,5,0,frases,NULL,Selector,classificacao,Selection,negativa,1738246207680,negativa;neutra;positiva
1738246935,79d2f0d2275aacd4e4e71a607a16f228,PennController,5,0,frases,NULL,PennController,6,_Trial_,End,1738246207681,NULL
1738246935,79d2f0d2275aacd4e4e71a607a16f228,PennController,6,0,frases,NULL,PennController,7,_Trial_,Start,1738246207683,NULL
1738246935,79d2f0d2275aacd4e4e71a607a16f228,PennController,6,0,frases,NULL,Selector,classificacao,Selection,neutra,1738246215436,negativa;neutra;positiva
1738246935,79d2f0d2275aacd4e4e71a607a16f228,PennController,6,0,frases,NULL,PennController,7,_Trial_,End,1738246215437,NULL
1738246935,79d2f0d2275aacd4e4e71a607a16f228,PennController,7,0,frases,NULL,PennController,8,_Trial_,Start,1738246215439,NULL
1738246935,79d2f0d2275aacd4e4e71a607a16f228,PennController,7,0,frases,NULL,Selector,classificacao,Selection,negativa,1738246220280,negativa;neutra;positiva
1738246935,79d2f0d2275aacd4e4e71a607a16f228,PennController,7,0,frases,NULL,PennController,8,_Trial_,End,1738246220281,NULL
1738246935,79d2f0d2275aacd4e4e71a607a16f228,PennController,8,0,frases,NULL,PennController,9,_Trial_,Start,1738246220283,NULL
1738246935,79d2f0d2275aacd4e4e71a607a16f228,PennController,8,0,frases,NULL,Selector,classificacao,Selection,neutra,1738246222146,negativa;neutra;positiva
1738246935,79d2f0d2275aacd4e4e71a607a16f228,PennController,8,0,frases,NULL,PennController,9,_Trial_,End,1738246222147,NULL
1738246935,79d2f0d2275aacd4e4e71a607a16f228,PennController,9,0,frases,NULL,PennController,10,_Trial_,Start,1738246222148,NULL
1738246935,79d2f0d2275aacd4e4e71a607a16f228,PennController,9,0,frases,NULL,Selector,classificacao,Selection,neutra,1738246226022,negativa;neutra;positiva
1738246935,79d2f0d2275aacd4e4e71a607a16f228,PennController,9,0,frases,NULL,PennController,10,_Trial_,End,1738246226023,NULL
1738246935,79d2f0d2275aacd4e4e71a607a16f228,PennController,10,0,frases,NULL,PennController,11,_Trial_,Start,1738246226025,NULL
1738246935,79d2f0d2275aacd4e4e71a607a16f228,PennController,10,0,frases,NULL,Selector,classificacao,Selection,neutra,1738246227498,negativa;neutra;positiva
1738246935,79d2f0d2275aacd4e4e71a607a16f228,PennController,10,0,frases,NULL,PennController,11,_Trial_,End,1738246227499,NULL
1738246935,79d2f0d2275aacd4e4e71a607a16f228,PennController,11,0,frases,NULL,PennController,12,_Trial_,Start,1738246227500,NULL
1738246935,79d2f0d2275aacd4e4e71a607a16f228,PennController,11,0,frases,NULL,Selector,classificacao,Selection,neutra,1738246229789,negativa;neutra;positiva
1738246935,79d2f0d2275aacd4e4e71a607a16f228,PennController,11,0,frases,NULL,PennController,12,_Trial_,End,1738246229790,NULL
1738246935,79d2f0d2275aacd4e4e71a607a16f228,PennController,12,0,frases,NULL,PennController,13,_Trial_,Start,1738246229791,NULL
1738246935,79d2f0d2275aacd4e4e71a607a16f228,PennController,12,0,frases,NULL,Selector,classificacao,Selection,neutra,1738246236160,negativa;neutra;positiva
1738246935,79d2f0d2275aacd4e4e71a607a16f228,PennController,12,0,frases,NULL,PennController,13,_Trial_,End,1738246236161,NULL
1738246935,79d2f0d2275aacd4e4e71a607a16f228,PennController,13,0,frases,NULL,PennController,14,_Trial_,Start,1738246236163,NULL
1738246935,79d2f0d2275aacd4e4e71a607a16f228,PennController,13,0,frases,NULL,Selector,classificacao,Selection,negativa,1738246242379,negativa;neutra;positiva
1738246935,79d2f0d2275aacd4e4e71a607a16f228,PennController,13,0,frases,NULL,PennController,14,_Trial_,End,1738246242380,NULL
1738246935,79d2f0d2275aacd4e4e71a607a16f228,PennController,14,0,frases,NULL,PennController,15,_Trial_,Start,1738246242381,NULL
1738246935,79d2f0d2275aacd4e4e71a607a16f228,PennController,14,0,frases,NULL,Selector,classificacao,Selection,positiva,1738246248447,negativa;neutra;positiva
1738246935,79d2f0d2275aacd4e4e71a607a16f228,PennController,14,0,frases,NULL,PennController,15,_Trial_,End,1738246248448,NULL
1738246935,79d2f0d2275aacd4e4e71a607a16f228,PennController,15,0,frases,NULL,PennController,16,_Trial_,Start,1738246248448,NULL
1738246935,79d2f0d2275aacd4e4e71a607a16f228,PennController,15,0,frases,NULL,Selector,classificacao,Selection,negativa,1738246253438,negativa;neutra;positiva
1738246935,79d2f0d2275aacd4e4e71a607a16f228,PennController,15,0,frases,NULL,PennController,16,_Trial_,End,1738246253439,NULL
1738246935,79d2f0d2275aacd4e4e71a607a16f228,PennController,16,0,frases,NULL,PennController,17,_Trial_,Start,1738246253440,NULL
1738246935,79d2f0d2275aacd4e4e71a607a16f228,PennController,16,0,frases,NULL,Selector,classificacao,Selection,positiva,1738246265776,negativa;neutra;positiva
1738246935,79d2f0d2275aacd4e4e71a607a16f228,PennController,16,0,frases,NULL,PennController,17,_Trial_,End,1738246265777,NULL
1738246935,79d2f0d2275aacd4e4e71a607a16f228,PennController,17,0,frases,NULL,PennController,18,_Trial_,Start,1738246265779,NULL
1738246935,79d2f0d2275aacd4e4e71a607a16f228,PennController,17,0,frases,NULL,Selector,classificacao,Selection,neutra,1738246269552,negativa;neutra;positiva
1738246935,79d2f0d2275aacd4e4e71a607a16f228,PennController,17,0,frases,NULL,PennController,18,_Trial_,End,1738246269553,NULL
1738246935,79d2f0d2275aacd4e4e71a607a16f228,PennController,18,0,frases,NULL,PennController,19,_Trial_,Start,1738246269554,NULL
1738246935,79d2f0d2275aacd4e4e71a607a16f228,PennController,18,0,frases,NULL,Selector,classificacao,Selection,neutra,1738246274409,negativa;neutra;positiva
1738246935,79d2f0d2275aacd4e4e71a607a16f228,PennController,18,0,frases,NULL,PennController,19,_Trial_,End,1738246274410,NULL
1738246935,79d2f0d2275aacd4e4e71a607a16f228,PennController,19,0,frases,NULL,PennController,20,_Trial_,Start,1738246274411,NULL
1738246935,79d2f0d2275aacd4e4e71a607a16f228,PennController,19,0,frases,NULL,Selector,classificacao,Selection,neutra,1738246277376,negativa;neutra;positiva
1738246935,79d2f0d2275aacd4e4e71a607a16f228,PennController,19,0,frases,NULL,PennController,20,_Trial_,End,1738246277377,NULL
1738246935,79d2f0d2275aacd4e4e71a607a16f228,PennController,20,0,frases,NULL,PennController,21,_Trial_,Start,1738246277378,NULL
1738246935,79d2f0d2275aacd4e4e71a607a16f228,PennController,20,0,frases,NULL,Selector,classificacao,Selection,neutra,1738246280632,negativa;neutra;positiva
1738246935,79d2f0d2275aacd4e4e71a607a16f228,PennController,20,0,frases,NULL,PennController,21,_Trial_,End,1738246280633,NULL
1738246935,79d2f0d2275aacd4e4e71a607a16f228,PennController,21,0,frases,NULL,PennController,22,_Trial_,Start,1738246280634,NULL
1738246935,79d2f0d2275aacd4e4e71a607a16f228,PennController,21,0,frases,NULL,Selector,classificacao,Selection,positiva,1738246287978,negativa;neutra;positiva
1738246935,79d2f0d2275aacd4e4e71a607a16f228,PennController,21,0,frases,NULL,PennController,22,_Trial_,End,1738246287979,NULL
1738246935,79d2f0d2275aacd4e4e71a607a16f228,PennController,22,0,frases,NULL,PennController,23,_Trial_,Start,1738246287980,NULL
1738246935,79d2f0d2275aacd4e4e71a607a16f228,PennController,22,0,frases,NULL,Selector,classificacao,Selection,negativa,1738246295360,negativa;neutra;positiva
1738246935,79d2f0d2275aacd4e4e71a607a16f228,PennController,22,0,frases,NULL,PennController,23,_Trial_,End,1738246295361,NULL
1738246935,79d2f0d2275aacd4e4e71a607a16f228,PennController,23,0,frases,NULL,PennController,24,_Trial_,Start,1738246295362,NULL
1738246935,79d2f0d2275aacd4e4e71a607a16f228,PennController,23,0,frases,NULL,Selector,classificacao,Selection,positiva,1738246297806,negativa;neutra;positiva
1738246935,79d2f0d2275aacd4e4e71a607a16f228,PennController,23,0,frases,NULL,PennController,24,_Trial_,End,1738246297807,NULL
1738246935,79d2f0d2275aacd4e4e71a607a16f228,PennController,24,0,frases,NULL,PennController,25,_Trial_,Start,1738246297808,NULL
1738246935,79d2f0d2275aacd4e4e71a607a16f228,PennController,24,0,frases,NULL,Selector,classificacao,Selection,positiva,1738246303675,negativa;neutra;positiva
1738246935,79d2f0d2275aacd4e4e71a607a16f228,PennController,24,0,frases,NULL,PennController,25,_Trial_,End,1738246303676,NULL
1738246935,79d2f0d2275aacd4e4e71a607a16f228,PennController,25,0,frases,NULL,PennController,26,_Trial_,Start,1738246303677,NULL
1738246935,79d2f0d2275aacd4e4e71a607a16f228,PennController,25,0,frases,NULL,Selector,classificacao,Selection,neutra,1738246306973,negativa;neutra;positiva
1738246935,79d2f0d2275aacd4e4e71a607a16f228,PennController,25,0,frases,NULL,PennController,26,_Trial_,End,1738246306974,NULL
1738246935,79d2f0d2275aacd4e4e71a607a16f228,PennController,26,0,frases,NULL,PennController,27,_Trial_,Start,1738246306975,NULL
1738246935,79d2f0d2275aacd4e4e71a607a16f228,PennController,26,0,frases,NULL,Selector,classificacao,Selection,neutra,1738246311219,negativa;neutra;positiva
1738246935,79d2f0d2275aacd4e4e71a607a16f228,PennController,26,0,frases,NULL,PennController,27,_Trial_,End,1738246311220,NULL
1738246935,79d2f0d2275aacd4e4e71a607a16f228,PennController,27,0,frases,NULL,PennController,28,_Trial_,Start,1738246311221,NULL
1738246935,79d2f0d2275aacd4e4e71a607a16f228,PennController,27,0,frases,NULL,Selector,classificacao,Selection,neutra,1738246318105,negativa;neutra;positiva
1738246935,79d2f0d2275aacd4e4e71a607a16f228,PennController,27,0,frases,NULL,PennController,28,_Trial_,End,1738246318106,NULL
1738246935,79d2f0d2275aacd4e4e71a607a16f228,PennController,28,0,frases,NULL,PennController,29,_Trial_,Start,1738246318107,NULL
1738246935,79d2f0d2275aacd4e4e71a607a16f228,PennController,28,0,frases,NULL,Selector,classificacao,Selection,neutra,1738246324583,negativa;neutra;positiva
1738246935,79d2f0d2275aacd4e4e71a607a16f228,PennController,28,0,frases,NULL,PennController,29,_Trial_,End,1738246324584,NULL
1738246935,79d2f0d2275aacd4e4e71a607a16f228,PennController,29,0,frases,NULL,PennController,30,_Trial_,Start,1738246324586,NULL
1738246935,79d2f0d2275aacd4e4e71a607a16f228,PennController,29,0,frases,NULL,Selector,classificacao,Selection,neutra,1738246329301,negativa;neutra;positiva
1738246935,79d2f0d2275aacd4e4e71a607a16f228,PennController,29,0,frases,NULL,PennController,30,_Trial_,End,1738246329302,NULL
1738246935,79d2f0d2275aacd4e4e71a607a16f228,PennController,30,0,frases,NULL,PennController,31,_Trial_,Start,1738246329303,NULL
1738246935,79d2f0d2275aacd4e4e71a607a16f228,PennController,30,0,frases,NULL,Selector,classificacao,Selection,neutra,1738246331397,negativa;neutra;positiva
1738246935,79d2f0d2275aacd4e4e71a607a16f228,PennController,30,0,frases,NULL,PennController,31,_Trial_,End,1738246331398,NULL
1738246935,79d2f0d2275aacd4e4e71a607a16f228,PennController,31,0,frases,NULL,PennController,32,_Trial_,Start,1738246331399,NULL
1738246935,79d2f0d2275aacd4e4e71a607a16f228,PennController,31,0,frases,NULL,Selector,classificacao,Selection,positiva,1738246336925,negativa;neutra;positiva
1738246935,79d2f0d2275aacd4e4e71a607a16f228,PennController,31,0,frases,NULL,PennController,32,_Trial_,End,1738246336927,NULL
1738246935,79d2f0d2275aacd4e4e71a607a16f228,PennController,32,0,frases,NULL,PennController,33,_Trial_,Start,1738246336928,NULL
1738246935,79d2f0d2275aacd4e4e71a607a16f228,PennController,32,0,frases,NULL,Selector,classificacao,Selection,neutra,1738246340924,negativa;neutra;positiva
1738246935,79d2f0d2275aacd4e4e71a607a16f228,PennController,32,0,frases,NULL,PennController,33,_Trial_,End,1738246340925,NULL
1738246935,79d2f0d2275aacd4e4e71a607a16f228,PennController,33,0,frases,NULL,PennController,34,_Trial_,Start,1738246340926,NULL
1738246935,79d2f0d2275aacd4e4e71a607a16f228,PennController,33,0,frases,NULL,Selector,classificacao,Selection,neutra,1738246351618,negativa;neutra;positiva
1738246935,79d2f0d2275aacd4e4e71a607a16f228,PennController,33,0,frases,NULL,PennController,34,_Trial_,End,1738246351619,NULL
1738246935,79d2f0d2275aacd4e4e71a607a16f228,PennController,34,0,frases,NULL,PennController,35,_Trial_,Start,1738246351621,NULL
1738246935,79d2f0d2275aacd4e4e71a607a16f228,PennController,34,0,frases,NULL,Selector,classificacao,Selection,neutra,1738246358503,negativa;neutra;positiva
1738246935,79d2f0d2275aacd4e4e71a607a16f228,PennController,34,0,frases,NULL,PennController,35,_Trial_,End,1738246358504,NULL
1738246935,79d2f0d2275aacd4e4e71a607a16f228,PennController,35,0,frases,NULL,PennController,36,_Trial_,Start,1738246358505,NULL
1738246935,79d2f0d2275aacd4e4e71a607a16f228,PennController,35,0,frases,NULL,Selector,classificacao,Selection,negativa,1738246366496,negativa;neutra;positiva
1738246935,79d2f0d2275aacd4e4e71a607a16f228,PennController,35,0,frases,NULL,PennController,36,_Trial_,End,1738246366497,NULL
1738246935,79d2f0d2275aacd4e4e71a607a16f228,PennController,36,0,frases,NULL,PennController,37,_Trial_,Start,1738246366498,NULL
1738246935,79d2f0d2275aacd4e4e71a607a16f228,PennController,36,0,frases,NULL,Selector,classificacao,Selection,neutra,1738246370123,negativa;neutra;positiva
1738246935,79d2f0d2275aacd4e4e71a607a16f228,PennController,36,0,frases,NULL,PennController,37,_Trial_,End,1738246370124,NULL
1738246935,79d2f0d2275aacd4e4e71a607a16f228,PennController,37,0,frases,NULL,PennController,38,_Trial_,Start,1738246370125,NULL
1738246935,79d2f0d2275aacd4e4e71a607a16f228,PennController,37,0,frases,NULL,Selector,classificacao,Selection,neutra,1738246372310,negativa;neutra;positiva
1738246935,79d2f0d2275aacd4e4e71a607a16f228,PennController,37,0,frases,NULL,PennController,38,_Trial_,End,1738246372311,NULL
1738246935,79d2f0d2275aacd4e4e71a607a16f228,PennController,38,0,frases,NULL,PennController,39,_Trial_,Start,1738246372312,NULL
1738246935,79d2f0d2275aacd4e4e71a607a16f228,PennController,38,0,frases,NULL,Selector,classificacao,Selection,neutra,1738246382393,negativa;neutra;positiva
1738246935,79d2f0d2275aacd4e4e71a607a16f228,PennController,38,0,frases,NULL,PennController,39,_Trial_,End,1738246382395,NULL
1738246935,79d2f0d2275aacd4e4e71a607a16f228,PennController,39,0,frases,NULL,PennController,40,_Trial_,Start,1738246382396,NULL
1738246935,79d2f0d2275aacd4e4e71a607a16f228,PennController,39,0,frases,NULL,Selector,classificacao,Selection,positiva,1738246385901,negativa;neutra;positiva
1738246935,79d2f0d2275aacd4e4e71a607a16f228,PennController,39,0,frases,NULL,PennController,40,_Trial_,End,1738246385902,NULL
1738246935,79d2f0d2275aacd4e4e71a607a16f228,PennController,40,0,frases,NULL,PennController,41,_Trial_,Start,1738246385903,NULL
1738246935,79d2f0d2275aacd4e4e71a607a16f228,PennController,40,0,frases,NULL,Selector,classificacao,Selection,negativa,1738246388444,negativa;neutra;positiva
1738246935,79d2f0d2275aacd4e4e71a607a16f228,PennController,40,0,frases,NULL,PennController,41,_Trial_,End,1738246388445,NULL
1738246935,79d2f0d2275aacd4e4e71a607a16f228,PennController,41,0,frases,NULL,PennController,42,_Trial_,Start,1738246388446,NULL
1738246935,79d2f0d2275aacd4e4e71a607a16f228,PennController,41,0,frases,NULL,Selector,classificacao,Selection,neutra,1738246392154,negativa;neutra;positiva
1738246935,79d2f0d2275aacd4e4e71a607a16f228,PennController,41,0,frases,NULL,PennController,42,_Trial_,End,1738246392155,NULL
1738246935,79d2f0d2275aacd4e4e71a607a16f228,PennController,42,0,frases,NULL,PennController,43,_Trial_,Start,1738246392156,NULL
1738246935,79d2f0d2275aacd4e4e71a607a16f228,PennController,42,0,frases,NULL,Selector,classificacao,Selection,neutra,1738246394091,negativa;neutra;positiva
1738246935,79d2f0d2275aacd4e4e71a607a16f228,PennController,42,0,frases,NULL,PennController,43,_Trial_,End,1738246394092,NULL
1738246935,79d2f0d2275aacd4e4e71a607a16f228,PennController,43,0,frases,NULL,PennController,44,_Trial_,Start,1738246394092,NULL
1738246935,79d2f0d2275aacd4e4e71a607a16f228,PennController,43,0,frases,NULL,Selector,classificacao,Selection,neutra,1738246397159,negativa;neutra;positiva
1738246935,79d2f0d2275aacd4e4e71a607a16f228,PennController,43,0,frases,NULL,PennController,44,_Trial_,End,1738246397160,NULL
1738246935,79d2f0d2275aacd4e4e71a607a16f228,PennController,44,0,frases,NULL,PennController,45,_Trial_,Start,1738246397161,NULL
1738246935,79d2f0d2275aacd4e4e71a607a16f228,PennController,44,0,frases,NULL,Selector,classificacao,Selection,negativa,1738246401431,negativa;neutra;positiva
1738246935,79d2f0d2275aacd4e4e71a607a16f228,PennController,44,0,frases,NULL,PennController,45,_Trial_,End,1738246401432,NULL
1738246935,79d2f0d2275aacd4e4e71a607a16f228,PennController,45,0,frases,NULL,PennController,46,_Trial_,Start,1738246401433,NULL
1738246935,79d2f0d2275aacd4e4e71a607a16f228,PennController,45,0,frases,NULL,Selector,classificacao,Selection,neutra,1738246409697,negativa;neutra;positiva
1738246935,79d2f0d2275aacd4e4e71a607a16f228,PennController,45,0,frases,NULL,PennController,46,_Trial_,End,1738246409698,NULL
1738246935,79d2f0d2275aacd4e4e71a607a16f228,PennController,46,0,frases,NULL,PennController,47,_Trial_,Start,1738246409700,NULL
1738246935,79d2f0d2275aacd4e4e71a607a16f228,PennController,46,0,frases,NULL,Selector,classificacao,Selection,negativa,1738246412359,negativa;neutra;positiva
1738246935,79d2f0d2275aacd4e4e71a607a16f228,PennController,46,0,frases,NULL,PennController,47,_Trial_,End,1738246412360,NULL
1738246935,79d2f0d2275aacd4e4e71a607a16f228,PennController,47,0,frases,NULL,PennController,48,_Trial_,Start,1738246412361,NULL
1738246935,79d2f0d2275aacd4e4e71a607a16f228,PennController,47,0,frases,NULL,Selector,classificacao,Selection,negativa,1738246415615,negativa;neutra;positiva
1738246935,79d2f0d2275aacd4e4e71a607a16f228,PennController,47,0,frases,NULL,PennController,48,_Trial_,End,1738246415616,NULL
1738246935,79d2f0d2275aacd4e4e71a607a16f228,PennController,48,0,frases,NULL,PennController,49,_Trial_,Start,1738246415617,NULL
1738246935,79d2f0d2275aacd4e4e71a607a16f228,PennController,48,0,frases,NULL,Selector,classificacao,Selection,positiva,1738246421045,negativa;neutra;positiva
1738246935,79d2f0d2275aacd4e4e71a607a16f228,PennController,48,0,frases,NULL,PennController,49,_Trial_,End,1738246421046,NULL
1738246935,79d2f0d2275aacd4e4e71a607a16f228,PennController,49,0,frases,NULL,PennController,50,_Trial_,Start,1738246421047,NULL
1738246935,79d2f0d2275aacd4e4e71a607a16f228,PennController,49,0,frases,NULL,Selector,classificacao,Selection,neutra,1738246425264,negativa;neutra;positiva
1738246935,79d2f0d2275aacd4e4e71a607a16f228,PennController,49,0,frases,NULL,PennController,50,_Trial_,End,1738246425265,NULL
1738246935,79d2f0d2275aacd4e4e71a607a16f228,PennController,50,0,frases,NULL,PennController,51,_Trial_,Start,1738246425266,NULL
1738246935,79d2f0d2275aacd4e4e71a607a16f228,PennController,50,0,frases,NULL,Selector,classificacao,Selection,neutra,1738246427170,negativa;neutra;positiva
1738246935,79d2f0d2275aacd4e4e71a607a16f228,PennController,50,0,frases,NULL,PennController,51,_Trial_,End,1738246427171,NULL
1738246935,79d2f0d2275aacd4e4e71a607a16f228,PennController,51,0,frases,NULL,PennController,52,_Trial_,Start,1738246427172,NULL
1738246935,79d2f0d2275aacd4e4e71a607a16f228,PennController,51,0,frases,NULL,Selector,classificacao,Selection,negativa,1738246431462,negativa;neutra;positiva
1738246935,79d2f0d2275aacd4e4e71a607a16f228,PennController,51,0,frases,NULL,PennController,52,_Trial_,End,1738246431463,NULL
1738246935,79d2f0d2275aacd4e4e71a607a16f228,PennController,52,0,frases,NULL,PennController,53,_Trial_,Start,1738246431464,NULL
1738246935,79d2f0d2275aacd4e4e71a607a16f228,PennController,52,0,frases,NULL,Selector,classificacao,Selection,neutra,1738246435114,negativa;neutra;positiva
1738246935,79d2f0d2275aacd4e4e71a607a16f228,PennController,52,0,frases,NULL,PennController,53,_Trial_,End,1738246435115,NULL
1738246935,79d2f0d2275aacd4e4e71a607a16f228,PennController,53,0,frases,NULL,PennController,54,_Trial_,Start,1738246435116,NULL
1738246935,79d2f0d2275aacd4e4e71a607a16f228,PennController,53,0,frases,NULL,Selector,classificacao,Selection,negativa,1738246439494,negativa;neutra;positiva
1738246935,79d2f0d2275aacd4e4e71a607a16f228,PennController,53,0,frases,NULL,PennController,54,_Trial_,End,1738246439494,NULL
1738246935,79d2f0d2275aacd4e4e71a607a16f228,PennController,54,0,frases,NULL,PennController,55,_Trial_,Start,1738246439495,NULL
1738246935,79d2f0d2275aacd4e4e71a607a16f228,PennController,54,0,frases,NULL,Selector,classificacao,Selection,neutra,1738246442782,negativa;neutra;positiva
1738246935,79d2f0d2275aacd4e4e71a607a16f228,PennController,54,0,frases,NULL,PennController,55,_Trial_,End,1738246442783,NULL
1738246935,79d2f0d2275aacd4e4e71a607a16f228,PennController,55,0,frases,NULL,PennController,56,_Trial_,Start,1738246442785,NULL
1738246935,79d2f0d2275aacd4e4e71a607a16f228,PennController,55,0,frases,NULL,Selector,classificacao,Selection,positiva,1738246446456,negativa;neutra;positiva
1738246935,79d2f0d2275aacd4e4e71a607a16f228,PennController,55,0,frases,NULL,PennController,56,_Trial_,End,1738246446457,NULL
1738246935,79d2f0d2275aacd4e4e71a607a16f228,PennController,56,0,frases,NULL,PennController,57,_Trial_,Start,1738246446458,NULL
1738246935,79d2f0d2275aacd4e4e71a607a16f228,PennController,56,0,frases,NULL,Selector,classificacao,Selection,neutra,1738246450508,negativa;neutra;positiva
1738246935,79d2f0d2275aacd4e4e71a607a16f228,PennController,56,0,frases,NULL,PennController,57,_Trial_,End,1738246450509,NULL
1738246935,79d2f0d2275aacd4e4e71a607a16f228,PennController,57,0,frases,NULL,PennController,58,_Trial_,Start,1738246450510,NULL
1738246935,79d2f0d2275aacd4e4e71a607a16f228,PennController,57,0,frases,NULL,Selector,classificacao,Selection,neutra,1738246453928,negativa;neutra;positiva
1738246935,79d2f0d2275aacd4e4e71a607a16f228,PennController,57,0,frases,NULL,PennController,58,_Trial_,End,1738246453929,NULL
1738246935,79d2f0d2275aacd4e4e71a607a16f228,PennController,58,0,frases,NULL,PennController,59,_Trial_,Start,1738246453930,NULL
1738246935,79d2f0d2275aacd4e4e71a607a16f228,PennController,58,0,frases,NULL,Selector,classificacao,Selection,negativa,1738246460902,negativa;neutra;positiva
1738246935,79d2f0d2275aacd4e4e71a607a16f228,PennController,58,0,frases,NULL,PennController,59,_Trial_,End,1738246460903,NULL
1738246935,79d2f0d2275aacd4e4e71a607a16f228,PennController,59,0,frases,NULL,PennController,60,_Trial_,Start,1738246460904,NULL
1738246935,79d2f0d2275aacd4e4e71a607a16f228,PennController,59,0,frases,NULL,Selector,classificacao,Selection,neutra,1738246473692,negativa;neutra;positiva
1738246935,79d2f0d2275aacd4e4e71a607a16f228,PennController,59,0,frases,NULL,PennController,60,_Trial_,End,1738246473693,NULL
1738246935,79d2f0d2275aacd4e4e71a607a16f228,PennController,60,0,frases,NULL,PennController,61,_Trial_,Start,1738246473694,NULL
1738246935,79d2f0d2275aacd4e4e71a607a16f228,PennController,60,0,frases,NULL,Selector,classificacao,Selection,neutra,1738246481892,negativa;neutra;positiva
1738246935,79d2f0d2275aacd4e4e71a607a16f228,PennController,60,0,frases,NULL,PennController,61,_Trial_,End,1738246481893,NULL
1738246935,79d2f0d2275aacd4e4e71a607a16f228,PennController,61,0,frases,NULL,PennController,62,_Trial_,Start,1738246481894,NULL
1738246935,79d2f0d2275aacd4e4e71a607a16f228,PennController,61,0,frases,NULL,Selector,classificacao,Selection,neutra,1738246487572,negativa;neutra;positiva
1738246935,79d2f0d2275aacd4e4e71a607a16f228,PennController,61,0,frases,NULL,PennController,62,_Trial_,End,1738246487573,NULL
1738246935,79d2f0d2275aacd4e4e71a607a16f228,PennController,62,0,frases,NULL,PennController,63,_Trial_,Start,1738246487575,NULL
1738246935,79d2f0d2275aacd4e4e71a607a16f228,PennController,62,0,frases,NULL,Selector,classificacao,Selection,neutra,1738246489499,negativa;neutra;positiva
1738246935,79d2f0d2275aacd4e4e71a607a16f228,PennController,62,0,frases,NULL,PennController,63,_Trial_,End,1738246489500,NULL
1738246935,79d2f0d2275aacd4e4e71a607a16f228,PennController,63,0,frases,NULL,PennController,64,_Trial_,Start,1738246489501,NULL
1738246935,79d2f0d2275aacd4e4e71a607a16f228,PennController,63,0,frases,NULL,Selector,classificacao,Selection,negativa,1738246495849,negativa;neutra;positiva
1738246935,79d2f0d2275aacd4e4e71a607a16f228,PennController,63,0,frases,NULL,PennController,64,_Trial_,End,1738246495850,NULL
1738246935,79d2f0d2275aacd4e4e71a607a16f228,PennController,64,0,frases,NULL,PennController,65,_Trial_,Start,1738246495851,NULL
1738246935,79d2f0d2275aacd4e4e71a607a16f228,PennController,64,0,frases,NULL,Selector,classificacao,Selection,neutra,1738246497331,negativa;neutra;positiva
1738246935,79d2f0d2275aacd4e4e71a607a16f228,PennController,64,0,frases,NULL,PennController,65,_Trial_,End,1738246497332,NULL
1738246935,79d2f0d2275aacd4e4e71a607a16f228,PennController,65,0,frases,NULL,PennController,66,_Trial_,Start,1738246497332,NULL
1738246935,79d2f0d2275aacd4e4e71a607a16f228,PennController,65,0,frases,NULL,Selector,classificacao,Selection,neutra,1738246498925,negativa;neutra;positiva
1738246935,79d2f0d2275aacd4e4e71a607a16f228,PennController,65,0,frases,NULL,PennController,66,_Trial_,End,1738246498926,NULL
1738246935,79d2f0d2275aacd4e4e71a607a16f228,PennController,66,0,frases,NULL,PennController,67,_Trial_,Start,1738246498927,NULL
1738246935,79d2f0d2275aacd4e4e71a607a16f228,PennController,66,0,frases,NULL,Selector,classificacao,Selection,neutra,1738246502130,negativa;neutra;positiva
1738246935,79d2f0d2275aacd4e4e71a607a16f228,PennController,66,0,frases,NULL,PennController,67,_Trial_,End,1738246502131,NULL
1738246935,79d2f0d2275aacd4e4e71a607a16f228,PennController,67,0,frases,NULL,PennController,68,_Trial_,Start,1738246502132,NULL
1738246935,79d2f0d2275aacd4e4e71a607a16f228,PennController,67,0,frases,NULL,Selector,classificacao,Selection,neutra,1738246504983,negativa;neutra;positiva
1738246935,79d2f0d2275aacd4e4e71a607a16f228,PennController,67,0,frases,NULL,PennController,68,_Trial_,End,1738246504984,NULL
1738246935,79d2f0d2275aacd4e4e71a607a16f228,PennController,68,0,frases,NULL,PennController,69,_Trial_,Start,1738246504985,NULL
1738246935,79d2f0d2275aacd4e4e71a607a16f228,PennController,68,0,frases,NULL,Selector,classificacao,Selection,negativa,1738246509865,negativa;neutra;positiva
1738246935,79d2f0d2275aacd4e4e71a607a16f228,PennController,68,0,frases,NULL,PennController,69,_Trial_,End,1738246509866,NULL
1738246935,79d2f0d2275aacd4e4e71a607a16f228,PennController,69,0,frases,NULL,PennController,70,_Trial_,Start,1738246509868,NULL
1738246935,79d2f0d2275aacd4e4e71a607a16f228,PennController,69,0,frases,NULL,Selector,classificacao,Selection,neutra,1738246513687,negativa;neutra;positiva
1738246935,79d2f0d2275aacd4e4e71a607a16f228,PennController,69,0,frases,NULL,PennController,70,_Trial_,End,1738246513688,NULL
1738246935,79d2f0d2275aacd4e4e71a607a16f228,PennController,70,0,frases,NULL,PennController,71,_Trial_,Start,1738246513689,NULL
1738246935,79d2f0d2275aacd4e4e71a607a16f228,PennController,70,0,frases,NULL,Selector,classificacao,Selection,neutra,1738246521635,negativa;neutra;positiva
1738246935,79d2f0d2275aacd4e4e71a607a16f228,PennController,70,0,frases,NULL,PennController,71,_Trial_,End,1738246521636,NULL
1738246935,79d2f0d2275aacd4e4e71a607a16f228,PennController,71,0,frases,NULL,PennController,72,_Trial_,Start,1738246521637,NULL
1738246935,79d2f0d2275aacd4e4e71a607a16f228,PennController,71,0,frases,NULL,Selector,classificacao,Selection,neutra,1738246524031,negativa;neutra;positiva
1738246935,79d2f0d2275aacd4e4e71a607a16f228,PennController,71,0,frases,NULL,PennController,72,_Trial_,End,1738246524032,NULL
1738246935,79d2f0d2275aacd4e4e71a607a16f228,PennController,72,0,frases,NULL,PennController,73,_Trial_,Start,1738246524033,NULL
1738246935,79d2f0d2275aacd4e4e71a607a16f228,PennController,72,0,frases,NULL,Selector,classificacao,Selection,neutra,1738246525199,negativa;neutra;positiva
1738246935,79d2f0d2275aacd4e4e71a607a16f228,PennController,72,0,frases,NULL,PennController,73,_Trial_,End,1738246525200,NULL
1738246935,79d2f0d2275aacd4e4e71a607a16f228,PennController,73,0,frases,NULL,PennController,74,_Trial_,Start,1738246525202,NULL
1738246935,79d2f0d2275aacd4e4e71a607a16f228,PennController,73,0,frases,NULL,Selector,classificacao,Selection,neutra,1738246530279,negativa;neutra;positiva
1738246935,79d2f0d2275aacd4e4e71a607a16f228,PennController,73,0,frases,NULL,PennController,74,_Trial_,End,1738246530280,NULL
1738246935,79d2f0d2275aacd4e4e71a607a16f228,PennController,74,0,frases,NULL,PennController,75,_Trial_,Start,1738246530281,NULL
1738246935,79d2f0d2275aacd4e4e71a607a16f228,PennController,74,0,frases,NULL,Selector,classificacao,Selection,neutra,1738246537485,negativa;neutra;positiva
1738246935,79d2f0d2275aacd4e4e71a607a16f228,PennController,74,0,frases,NULL,PennController,75,_Trial_,End,1738246537486,NULL
1738246935,79d2f0d2275aacd4e4e71a607a16f228,PennController,75,0,frases,NULL,PennController,76,_Trial_,Start,1738246537487,NULL
1738246935,79d2f0d2275aacd4e4e71a607a16f228,PennController,75,0,frases,NULL,Selector,classificacao,Selection,neutra,1738246540979,negativa;neutra;positiva
1738246935,79d2f0d2275aacd4e4e71a607a16f228,PennController,75,0,frases,NULL,PennController,76,_Trial_,End,1738246540980,NULL
1738246935,79d2f0d2275aacd4e4e71a607a16f228,PennController,76,0,frases,NULL,PennController,77,_Trial_,Start,1738246540981,NULL
1738246935,79d2f0d2275aacd4e4e71a607a16f228,PennController,76,0,frases,NULL,Selector,classificacao,Selection,positiva,1738246547970,negativa;neutra;positiva
1738246935,79d2f0d2275aacd4e4e71a607a16f228,PennController,76,0,frases,NULL,PennController,77,_Trial_,End,1738246547971,NULL
1738246935,79d2f0d2275aacd4e4e71a607a16f228,PennController,77,0,frases,NULL,PennController,78,_Trial_,Start,1738246547972,NULL
1738246935,79d2f0d2275aacd4e4e71a607a16f228,PennController,77,0,frases,NULL,Selector,classificacao,Selection,positiva,1738246550484,negativa;neutra;positiva
1738246935,79d2f0d2275aacd4e4e71a607a16f228,PennController,77,0,frases,NULL,PennController,78,_Trial_,End,1738246550486,NULL
1738246935,79d2f0d2275aacd4e4e71a607a16f228,PennController,78,0,frases,NULL,PennController,79,_Trial_,Start,1738246550487,NULL
1738246935,79d2f0d2275aacd4e4e71a607a16f228,PennController,78,0,frases,NULL,Selector,classificacao,Selection,neutra,1738246554673,negativa;neutra;positiva
1738246935,79d2f0d2275aacd4e4e71a607a16f228,PennController,78,0,frases,NULL,PennController,79,_Trial_,End,1738246554674,NULL
1738246935,79d2f0d2275aacd4e4e71a607a16f228,PennController,79,0,frases,NULL,PennController,80,_Trial_,Start,1738246554675,NULL
1738246935,79d2f0d2275aacd4e4e71a607a16f228,PennController,79,0,frases,NULL,Selector,classificacao,Selection,neutra,1738246563245,negativa;neutra;positiva
1738246935,79d2f0d2275aacd4e4e71a607a16f228,PennController,79,0,frases,NULL,PennController,80,_Trial_,End,1738246563246,NULL
1738246935,79d2f0d2275aacd4e4e71a607a16f228,PennController,80,0,frases,NULL,PennController,81,_Trial_,Start,1738246563248,NULL
1738246935,79d2f0d2275aacd4e4e71a607a16f228,PennController,80,0,frases,NULL,Selector,classificacao,Selection,neutra,1738246564643,negativa;neutra;positiva
1738246935,79d2f0d2275aacd4e4e71a607a16f228,PennController,80,0,frases,NULL,PennController,81,_Trial_,End,1738246564644,NULL
1738246935,79d2f0d2275aacd4e4e71a607a16f228,PennController,81,0,frases,NULL,PennController,82,_Trial_,Start,1738246564645,NULL
1738246935,79d2f0d2275aacd4e4e71a607a16f228,PennController,81,0,frases,NULL,Selector,classificacao,Selection,positiva,1738246569497,negativa;neutra;positiva
1738246935,79d2f0d2275aacd4e4e71a607a16f228,PennController,81,0,frases,NULL,PennController,82,_Trial_,End,1738246569499,NULL
1738246935,79d2f0d2275aacd4e4e71a607a16f228,PennController,82,0,frases,NULL,PennController,83,_Trial_,Start,1738246569500,NULL
1738246935,79d2f0d2275aacd4e4e71a607a16f228,PennController,82,0,frases,NULL,Selector,classificacao,Selection,negativa,1738246575361,negativa;neutra;positiva
1738246935,79d2f0d2275aacd4e4e71a607a16f228,PennController,82,0,frases,NULL,PennController,83,_Trial_,End,1738246575362,NULL
1738246935,79d2f0d2275aacd4e4e71a607a16f228,PennController,83,0,frases,NULL,PennController,84,_Trial_,Start,1738246575363,NULL
1738246935,79d2f0d2275aacd4e4e71a607a16f228,PennController,83,0,frases,NULL,Selector,classificacao,Selection,neutra,1738246577163,negativa;neutra;positiva
1738246935,79d2f0d2275aacd4e4e71a607a16f228,PennController,83,0,frases,NULL,PennController,84,_Trial_,End,1738246577164,NULL
1738246935,79d2f0d2275aacd4e4e71a607a16f228,PennController,84,0,frases,NULL,PennController,85,_Trial_,Start,1738246577165,NULL
1738246935,79d2f0d2275aacd4e4e71a607a16f228,PennController,84,0,frases,NULL,Selector,classificacao,Selection,neutra,1738246580251,negativa;neutra;positiva
1738246935,79d2f0d2275aacd4e4e71a607a16f228,PennController,84,0,frases,NULL,PennController,85,_Trial_,End,1738246580252,NULL
1738246935,79d2f0d2275aacd4e4e71a607a16f228,PennController,85,0,frases,NULL,PennController,86,_Trial_,Start,1738246580253,NULL
1738246935,79d2f0d2275aacd4e4e71a607a16f228,PennController,85,0,frases,NULL,Selector,classificacao,Selection,positiva,1738246583993,negativa;neutra;positiva
1738246935,79d2f0d2275aacd4e4e71a607a16f228,PennController,85,0,frases,NULL,PennController,86,_Trial_,End,1738246583994,NULL
1738246935,79d2f0d2275aacd4e4e71a607a16f228,PennController,86,0,frases,NULL,PennController,87,_Trial_,Start,1738246583995,NULL
1738246935,79d2f0d2275aacd4e4e71a607a16f228,PennController,86,0,frases,NULL,Selector,classificacao,Selection,neutra,1738246588395,negativa;neutra;positiva
1738246935,79d2f0d2275aacd4e4e71a607a16f228,PennController,86,0,frases,NULL,PennController,87,_Trial_,End,1738246588396,NULL
1738246935,79d2f0d2275aacd4e4e71a607a16f228,PennController,87,0,frases,NULL,PennController,88,_Trial_,Start,1738246588398,NULL
1738246935,79d2f0d2275aacd4e4e71a607a16f228,PennController,87,0,frases,NULL,Selector,classificacao,Selection,neutra,1738246591805,negativa;neutra;positiva
1738246935,79d2f0d2275aacd4e4e71a607a16f228,PennController,87,0,frases,NULL,PennController,88,_Trial_,End,1738246591806,NULL
1738246935,79d2f0d2275aacd4e4e71a607a16f228,PennController,88,0,frases,NULL,PennController,89,_Trial_,Start,1738246591807,NULL
1738246935,79d2f0d2275aacd4e4e71a607a16f228,PennController,88,0,frases,NULL,Selector,classificacao,Selection,neutra,1738246601603,negativa;neutra;positiva
1738246935,79d2f0d2275aacd4e4e71a607a16f228,PennController,88,0,frases,NULL,PennController,89,_Trial_,End,1738246601604,NULL
1738246935,79d2f0d2275aacd4e4e71a607a16f228,PennController,89,0,frases,NULL,PennController,90,_Trial_,Start,1738246601605,NULL
1738246935,79d2f0d2275aacd4e4e71a607a16f228,PennController,89,0,frases,NULL,Selector,classificacao,Selection,neutra,1738246605284,negativa;neutra;positiva
1738246935,79d2f0d2275aacd4e4e71a607a16f228,PennController,89,0,frases,NULL,PennController,90,_Trial_,End,1738246605285,NULL
1738246935,79d2f0d2275aacd4e4e71a607a16f228,PennController,90,0,frases,NULL,PennController,91,_Trial_,Start,1738246605286,NULL
1738246935,79d2f0d2275aacd4e4e71a607a16f228,PennController,90,0,frases,NULL,Selector,classificacao,Selection,neutra,1738246610914,negativa;neutra;positiva
