#
# Results on Fri, 17 Jan 2025 13:18:21 GMT
# USER AGENT: Mozilla/5.0 (Windows NT 10.0; Win64; x64) AppleWebKit/537.36 (KHTML, like Gecko) Chrome/132.0.0.0 Safari/537.36
# Design number was non-random = 0
#
# Columns below this comment are as follows:
# 1. Results reception time.
# 2. MD5 hash of participant's IP address.
# 3. Controller name.
# 4. Order number of item.
# 5. Inner element number.
# 6. Label.
# 7. Latin Square Group.
# 8. PennElementType.
# 9. PennElementName.
# 10. Parameter.
# 11. Value.
# 12. EventTime.
# 13. Comments.
1737119901,bdf066947686ab2cd01768f202816430,PennController,0,0,TCLE,NULL,PennController,0,_Trial_,Start,1737117716954,NULL
1737119901,bdf066947686ab2cd01768f202816430,PennController,0,0,TCLE,NULL,PennController,0,_Trial_,End,1737118761096,NULL
1737119901,bdf066947686ab2cd01768f202816430,PennController,3,0,instrucoes,NULL,PennController,3,_Trial_,Start,1737118761101,NULL
1737119901,bdf066947686ab2cd01768f202816430,PennController,3,0,instrucoes,NULL,PennController,3,_Trial_,End,1737118765180,NULL
1737119901,bdf066947686ab2cd01768f202816430,PennController,1,0,genero,NULL,PennController,1,_Trial_,Start,1737118765181,NULL
1737119901,bdf066947686ab2cd01768f202816430,PennController,1,0,genero,NULL,DropDown,selecionaGenero,Selected,Feminino,1737118767335,1
1737119901,bdf066947686ab2cd01768f202816430,PennController,1,0,genero,NULL,PennController,1,_Trial_,End,1737118768554,NULL
1737119901,bdf066947686ab2cd01768f202816430,PennController,4,0,frases,NULL,PennController,5,_Trial_,Start,1737118768555,NULL
1737119901,bdf066947686ab2cd01768f202816430,PennController,4,0,frases,NULL,Selector,classificacao,Selection,neutra,1737118774325,negativa;neutra;positiva
1737119901,bdf066947686ab2cd01768f202816430,PennController,4,0,frases,NULL,PennController,5,_Trial_,End,1737118774326,NULL
1737119901,bdf066947686ab2cd01768f202816430,PennController,5,0,frases,NULL,PennController,6,_Trial_,Start,1737118774327,NULL
1737119901,bdf066947686ab2cd01768f202816430,PennController,5,0,frases,NULL,Selector,classificacao,Selection,positiva,1737118782649,negativa;neutra;positiva
1737119901,bdf066947686ab2cd01768f202816430,PennController,5,0,frases,NULL,PennController,6,_Trial_,End,1737118782649,NULL
1737119901,bdf066947686ab2cd01768f202816430,PennController,6,0,frases,NULL,PennController,7,_Trial_,Start,1737118782650,NULL
1737119901,bdf066947686ab2cd01768f202816430,PennController,6,0,frases,NULL,Selector,classificacao,Selection,neutra,1737118786970,negativa;neutra;positiva
1737119901,bdf066947686ab2cd01768f202816430,PennController,6,0,frases,NULL,PennController,7,_Trial_,End,1737118786971,NULL
1737119901,bdf066947686ab2cd01768f202816430,PennController,7,0,frases,NULL,PennController,8,_Trial_,Start,1737118786972,NULL
1737119901,bdf066947686ab2cd01768f202816430,PennController,7,0,frases,NULL,Selector,classificacao,Selection,neutra,1737118811143,negativa;neutra;positiva
1737119901,bdf066947686ab2cd01768f202816430,PennController,7,0,frases,NULL,PennController,8,_Trial_,End,1737118811145,NULL
1737119901,bdf066947686ab2cd01768f202816430,PennController,8,0,frases,NULL,PennController,9,_Trial_,Start,1737118811146,NULL
1737119901,bdf066947686ab2cd01768f202816430,PennController,8,0,frases,NULL,Selector,classificacao,Selection,neutra,1737119086329,negativa;neutra;positiva
1737119901,bdf066947686ab2cd01768f202816430,PennController,8,0,frases,NULL,PennController,9,_Trial_,End,1737119086331,NULL
1737119901,bdf066947686ab2cd01768f202816430,PennController,9,0,frases,NULL,PennController,10,_Trial_,Start,1737119086335,NULL
1737119901,bdf066947686ab2cd01768f202816430,PennController,9,0,frases,NULL,Selector,classificacao,Selection,neutra,1737119094496,negativa;neutra;positiva
1737119901,bdf066947686ab2cd01768f202816430,PennController,9,0,frases,NULL,PennController,10,_Trial_,End,1737119094497,NULL
1737119901,bdf066947686ab2cd01768f202816430,PennController,10,0,frases,NULL,PennController,11,_Trial_,Start,1737119094498,NULL
1737119901,bdf066947686ab2cd01768f202816430,PennController,10,0,frases,NULL,Selector,classificacao,Selection,neutra,1737119097684,negativa;neutra;positiva
1737119901,bdf066947686ab2cd01768f202816430,PennController,10,0,frases,NULL,PennController,11,_Trial_,End,1737119097685,NULL
1737119901,bdf066947686ab2cd01768f202816430,PennController,11,0,frases,NULL,PennController,12,_Trial_,Start,1737119097686,NULL
1737119901,bdf066947686ab2cd01768f202816430,PennController,11,0,frases,NULL,Selector,classificacao,Selection,positiva,1737119101060,negativa;neutra;positiva
1737119901,bdf066947686ab2cd01768f202816430,PennController,11,0,frases,NULL,PennController,12,_Trial_,End,1737119101061,NULL
1737119901,bdf066947686ab2cd01768f202816430,PennController,12,0,frases,NULL,PennController,13,_Trial_,Start,1737119101061,NULL
1737119901,bdf066947686ab2cd01768f202816430,PennController,12,0,frases,NULL,Selector,classificacao,Selection,neutra,1737119104160,negativa;neutra;positiva
1737119901,bdf066947686ab2cd01768f202816430,PennController,12,0,frases,NULL,PennController,13,_Trial_,End,1737119104161,NULL
1737119901,bdf066947686ab2cd01768f202816430,PennController,13,0,frases,NULL,PennController,14,_Trial_,Start,1737119104162,NULL
1737119901,bdf066947686ab2cd01768f202816430,PennController,13,0,frases,NULL,Selector,classificacao,Selection,neutra,1737119108992,negativa;neutra;positiva
1737119901,bdf066947686ab2cd01768f202816430,PennController,13,0,frases,NULL,PennController,14,_Trial_,End,1737119108993,NULL
1737119901,bdf066947686ab2cd01768f202816430,PennController,14,0,frases,NULL,PennController,15,_Trial_,Start,1737119108993,NULL
1737119901,bdf066947686ab2cd01768f202816430,PennController,14,0,frases,NULL,Selector,classificacao,Selection,positiva,1737119111818,negativa;neutra;positiva
1737119901,bdf066947686ab2cd01768f202816430,PennController,14,0,frases,NULL,PennController,15,_Trial_,End,1737119111819,NULL
1737119901,bdf066947686ab2cd01768f202816430,PennController,15,0,frases,NULL,PennController,16,_Trial_,Start,1737119111820,NULL
1737119901,bdf066947686ab2cd01768f202816430,PennController,15,0,frases,NULL,Selector,classificacao,Selection,neutra,1737119121796,negativa;neutra;positiva
1737119901,bdf066947686ab2cd01768f202816430,PennController,15,0,frases,NULL,PennController,16,_Trial_,End,1737119121797,NULL
1737119901,bdf066947686ab2cd01768f202816430,PennController,16,0,frases,NULL,PennController,17,_Trial_,Start,1737119121799,NULL
1737119901,bdf066947686ab2cd01768f202816430,PennController,16,0,frases,NULL,Selector,classificacao,Selection,neutra,1737119124090,negativa;neutra;positiva
1737119901,bdf066947686ab2cd01768f202816430,PennController,16,0,frases,NULL,PennController,17,_Trial_,End,1737119124091,NULL
1737119901,bdf066947686ab2cd01768f202816430,PennController,17,0,frases,NULL,PennController,18,_Trial_,Start,1737119124092,NULL
1737119901,bdf066947686ab2cd01768f202816430,PennController,17,0,frases,NULL,Selector,classificacao,Selection,negativa,1737119128006,negativa;neutra;positiva
1737119901,bdf066947686ab2cd01768f202816430,PennController,17,0,frases,NULL,PennController,18,_Trial_,End,1737119128007,NULL
1737119901,bdf066947686ab2cd01768f202816430,PennController,18,0,frases,NULL,PennController,19,_Trial_,Start,1737119128008,NULL
1737119901,bdf066947686ab2cd01768f202816430,PennController,18,0,frases,NULL,Selector,classificacao,Selection,neutra,1737119134656,negativa;neutra;positiva
1737119901,bdf066947686ab2cd01768f202816430,PennController,18,0,frases,NULL,PennController,19,_Trial_,End,1737119134657,NULL
1737119901,bdf066947686ab2cd01768f202816430,PennController,19,0,frases,NULL,PennController,20,_Trial_,Start,1737119134658,NULL
1737119901,bdf066947686ab2cd01768f202816430,PennController,19,0,frases,NULL,Selector,classificacao,Selection,neutra,1737119140426,negativa;neutra;positiva
1737119901,bdf066947686ab2cd01768f202816430,PennController,19,0,frases,NULL,PennController,20,_Trial_,End,1737119140427,NULL
1737119901,bdf066947686ab2cd01768f202816430,PennController,20,0,frases,NULL,PennController,21,_Trial_,Start,1737119140427,NULL
1737119901,bdf066947686ab2cd01768f202816430,PennController,20,0,frases,NULL,Selector,classificacao,Selection,positiva,1737119143848,negativa;neutra;positiva
1737119901,bdf066947686ab2cd01768f202816430,PennController,20,0,frases,NULL,PennController,21,_Trial_,End,1737119143849,NULL
1737119901,bdf066947686ab2cd01768f202816430,PennController,21,0,frases,NULL,PennController,22,_Trial_,Start,1737119143849,NULL
1737119901,bdf066947686ab2cd01768f202816430,PennController,21,0,frases,NULL,Selector,classificacao,Selection,neutra,1737119145932,negativa;neutra;positiva
1737119901,bdf066947686ab2cd01768f202816430,PennController,21,0,frases,NULL,PennController,22,_Trial_,End,1737119145933,NULL
1737119901,bdf066947686ab2cd01768f202816430,PennController,22,0,frases,NULL,PennController,23,_Trial_,Start,1737119145934,NULL
1737119901,bdf066947686ab2cd01768f202816430,PennController,22,0,frases,NULL,Selector,classificacao,Selection,positiva,1737119155502,negativa;neutra;positiva
1737119901,bdf066947686ab2cd01768f202816430,PennController,22,0,frases,NULL,PennController,23,_Trial_,End,1737119155503,NULL
1737119901,bdf066947686ab2cd01768f202816430,PennController,23,0,frases,NULL,PennController,24,_Trial_,Start,1737119155503,NULL
1737119901,bdf066947686ab2cd01768f202816430,PennController,23,0,frases,NULL,Selector,classificacao,Selection,negativa,1737119164318,negativa;neutra;positiva
1737119901,bdf066947686ab2cd01768f202816430,PennController,23,0,frases,NULL,PennController,24,_Trial_,End,1737119164319,NULL
1737119901,bdf066947686ab2cd01768f202816430,PennController,24,0,frases,NULL,PennController,25,_Trial_,Start,1737119164319,NULL
1737119901,bdf066947686ab2cd01768f202816430,PennController,24,0,frases,NULL,Selector,classificacao,Selection,positiva,1737119171414,negativa;neutra;positiva
1737119901,bdf066947686ab2cd01768f202816430,PennController,24,0,frases,NULL,PennController,25,_Trial_,End,1737119171415,NULL
1737119901,bdf066947686ab2cd01768f202816430,PennController,25,0,frases,NULL,PennController,26,_Trial_,Start,1737119171415,NULL
1737119901,bdf066947686ab2cd01768f202816430,PennController,25,0,frases,NULL,Selector,classificacao,Selection,neutra,1737119173278,negativa;neutra;positiva
1737119901,bdf066947686ab2cd01768f202816430,PennController,25,0,frases,NULL,PennController,26,_Trial_,End,1737119173279,NULL
1737119901,bdf066947686ab2cd01768f202816430,PennController,26,0,frases,NULL,PennController,27,_Trial_,Start,1737119173279,NULL
1737119901,bdf066947686ab2cd01768f202816430,PennController,26,0,frases,NULL,Selector,classificacao,Selection,positiva,1737119176802,negativa;neutra;positiva
1737119901,bdf066947686ab2cd01768f202816430,PennController,26,0,frases,NULL,PennController,27,_Trial_,End,1737119176803,NULL
1737119901,bdf066947686ab2cd01768f202816430,PennController,27,0,frases,NULL,PennController,28,_Trial_,Start,1737119176805,NULL
1737119901,bdf066947686ab2cd01768f202816430,PennController,27,0,frases,NULL,Selector,classificacao,Selection,positiva,1737119180836,negativa;neutra;positiva
1737119901,bdf066947686ab2cd01768f202816430,PennController,27,0,frases,NULL,PennController,28,_Trial_,End,1737119180836,NULL
1737119901,bdf066947686ab2cd01768f202816430,PennController,28,0,frases,NULL,PennController,29,_Trial_,Start,1737119180837,NULL
1737119901,bdf066947686ab2cd01768f202816430,PennController,28,0,frases,NULL,Selector,classificacao,Selection,neutra,1737119188273,negativa;neutra;positiva
1737119901,bdf066947686ab2cd01768f202816430,PennController,28,0,frases,NULL,PennController,29,_Trial_,End,1737119188274,NULL
1737119901,bdf066947686ab2cd01768f202816430,PennController,29,0,frases,NULL,PennController,30,_Trial_,Start,1737119188275,NULL
1737119901,bdf066947686ab2cd01768f202816430,PennController,29,0,frases,NULL,Selector,classificacao,Selection,neutra,1737119197356,negativa;neutra;positiva
1737119901,bdf066947686ab2cd01768f202816430,PennController,29,0,frases,NULL,PennController,30,_Trial_,End,1737119197357,NULL
1737119901,bdf066947686ab2cd01768f202816430,PennController,30,0,frases,NULL,PennController,31,_Trial_,Start,1737119197358,NULL
1737119901,bdf066947686ab2cd01768f202816430,PennController,30,0,frases,NULL,Selector,classificacao,Selection,neutra,1737119201858,negativa;neutra;positiva
1737119901,bdf066947686ab2cd01768f202816430,PennController,30,0,frases,NULL,PennController,31,_Trial_,End,1737119201859,NULL
1737119901,bdf066947686ab2cd01768f202816430,PennController,31,0,frases,NULL,PennController,32,_Trial_,Start,1737119201859,NULL
1737119901,bdf066947686ab2cd01768f202816430,PennController,31,0,frases,NULL,Selector,classificacao,Selection,neutra,1737119206832,negativa;neutra;positiva
1737119901,bdf066947686ab2cd01768f202816430,PennController,31,0,frases,NULL,PennController,32,_Trial_,End,1737119206833,NULL
1737119901,bdf066947686ab2cd01768f202816430,PennController,32,0,frases,NULL,PennController,33,_Trial_,Start,1737119206834,NULL
1737119901,bdf066947686ab2cd01768f202816430,PennController,32,0,frases,NULL,Selector,classificacao,Selection,positiva,1737119213026,negativa;neutra;positiva
1737119901,bdf066947686ab2cd01768f202816430,PennController,32,0,frases,NULL,PennController,33,_Trial_,End,1737119213027,NULL
1737119901,bdf066947686ab2cd01768f202816430,PennController,33,0,frases,NULL,PennController,34,_Trial_,Start,1737119213027,NULL
1737119901,bdf066947686ab2cd01768f202816430,PennController,33,0,frases,NULL,Selector,classificacao,Selection,negativa,1737119220482,negativa;neutra;positiva
1737119901,bdf066947686ab2cd01768f202816430,PennController,33,0,frases,NULL,PennController,34,_Trial_,End,1737119220483,NULL
1737119901,bdf066947686ab2cd01768f202816430,PennController,34,0,frases,NULL,PennController,35,_Trial_,Start,1737119220484,NULL
1737119901,bdf066947686ab2cd01768f202816430,PennController,34,0,frases,NULL,Selector,classificacao,Selection,negativa,1737119231211,negativa;neutra;positiva
1737119901,bdf066947686ab2cd01768f202816430,PennController,34,0,frases,NULL,PennController,35,_Trial_,End,1737119231212,NULL
1737119901,bdf066947686ab2cd01768f202816430,PennController,35,0,frases,NULL,PennController,36,_Trial_,Start,1737119231213,NULL
1737119901,bdf066947686ab2cd01768f202816430,PennController,35,0,frases,NULL,Selector,classificacao,Selection,neutra,1737119239738,negativa;neutra;positiva
1737119901,bdf066947686ab2cd01768f202816430,PennController,35,0,frases,NULL,PennController,36,_Trial_,End,1737119239739,NULL
1737119901,bdf066947686ab2cd01768f202816430,PennController,36,0,frases,NULL,PennController,37,_Trial_,Start,1737119239739,NULL
1737119901,bdf066947686ab2cd01768f202816430,PennController,36,0,frases,NULL,Selector,classificacao,Selection,neutra,1737119245056,negativa;neutra;positiva
1737119901,bdf066947686ab2cd01768f202816430,PennController,36,0,frases,NULL,PennController,37,_Trial_,End,1737119245056,NULL
1737119901,bdf066947686ab2cd01768f202816430,PennController,37,0,frases,NULL,PennController,38,_Trial_,Start,1737119245057,NULL
1737119901,bdf066947686ab2cd01768f202816430,PennController,37,0,frases,NULL,Selector,classificacao,Selection,positiva,1737119247122,negativa;neutra;positiva
1737119901,bdf066947686ab2cd01768f202816430,PennController,37,0,frases,NULL,PennController,38,_Trial_,End,1737119247123,NULL
1737119901,bdf066947686ab2cd01768f202816430,PennController,38,0,frases,NULL,PennController,39,_Trial_,Start,1737119247123,NULL
1737119901,bdf066947686ab2cd01768f202816430,PennController,38,0,frases,NULL,Selector,classificacao,Selection,neutra,1737119255926,negativa;neutra;positiva
1737119901,bdf066947686ab2cd01768f202816430,PennController,38,0,frases,NULL,PennController,39,_Trial_,End,1737119255927,NULL
1737119901,bdf066947686ab2cd01768f202816430,PennController,39,0,frases,NULL,PennController,40,_Trial_,Start,1737119255928,NULL
1737119901,bdf066947686ab2cd01768f202816430,PennController,39,0,frases,NULL,Selector,classificacao,Selection,neutra,1737119262590,negativa;neutra;positiva
1737119901,bdf066947686ab2cd01768f202816430,PennController,39,0,frases,NULL,PennController,40,_Trial_,End,1737119262590,NULL
1737119901,bdf066947686ab2cd01768f202816430,PennController,40,0,frases,NULL,PennController,41,_Trial_,Start,1737119262591,NULL
1737119901,bdf066947686ab2cd01768f202816430,PennController,40,0,frases,NULL,Selector,classificacao,Selection,negativa,1737119269246,negativa;neutra;positiva
1737119901,bdf066947686ab2cd01768f202816430,PennController,40,0,frases,NULL,PennController,41,_Trial_,End,1737119269247,NULL
1737119901,bdf066947686ab2cd01768f202816430,PennController,41,0,frases,NULL,PennController,42,_Trial_,Start,1737119269248,NULL
1737119901,bdf066947686ab2cd01768f202816430,PennController,41,0,frases,NULL,Selector,classificacao,Selection,neutra,1737119271682,negativa;neutra;positiva
1737119901,bdf066947686ab2cd01768f202816430,PennController,41,0,frases,NULL,PennController,42,_Trial_,End,1737119271684,NULL
1737119901,bdf066947686ab2cd01768f202816430,PennController,42,0,frases,NULL,PennController,43,_Trial_,Start,1737119271685,NULL
1737119901,bdf066947686ab2cd01768f202816430,PennController,42,0,frases,NULL,Selector,classificacao,Selection,positiva,1737119275374,negativa;neutra;positiva
1737119901,bdf066947686ab2cd01768f202816430,PennController,42,0,frases,NULL,PennController,43,_Trial_,End,1737119275377,NULL
1737119901,bdf066947686ab2cd01768f202816430,PennController,43,0,frases,NULL,PennController,44,_Trial_,Start,1737119275381,NULL
1737119901,bdf066947686ab2cd01768f202816430,PennController,43,0,frases,NULL,Selector,classificacao,Selection,neutra,1737119279749,negativa;neutra;positiva
1737119901,bdf066947686ab2cd01768f202816430,PennController,43,0,frases,NULL,PennController,44,_Trial_,End,1737119279750,NULL
1737119901,bdf066947686ab2cd01768f202816430,PennController,44,0,frases,NULL,PennController,45,_Trial_,Start,1737119279750,NULL
1737119901,bdf066947686ab2cd01768f202816430,PennController,44,0,frases,NULL,Selector,classificacao,Selection,negativa,1737119287980,negativa;neutra;positiva
1737119901,bdf066947686ab2cd01768f202816430,PennController,44,0,frases,NULL,PennController,45,_Trial_,End,1737119287980,NULL
1737119901,bdf066947686ab2cd01768f202816430,PennController,45,0,frases,NULL,PennController,46,_Trial_,Start,1737119287981,NULL
1737119901,bdf066947686ab2cd01768f202816430,PennController,45,0,frases,NULL,Selector,classificacao,Selection,neutra,1737119290752,negativa;neutra;positiva
1737119901,bdf066947686ab2cd01768f202816430,PennController,45,0,frases,NULL,PennController,46,_Trial_,End,1737119290753,NULL
1737119901,bdf066947686ab2cd01768f202816430,PennController,46,0,frases,NULL,PennController,47,_Trial_,Start,1737119290754,NULL
1737119901,bdf066947686ab2cd01768f202816430,PennController,46,0,frases,NULL,Selector,classificacao,Selection,neutra,1737119292662,negativa;neutra;positiva
1737119901,bdf066947686ab2cd01768f202816430,PennController,46,0,frases,NULL,PennController,47,_Trial_,End,1737119292663,NULL
1737119901,bdf066947686ab2cd01768f202816430,PennController,47,0,frases,NULL,PennController,48,_Trial_,Start,1737119292663,NULL
1737119901,bdf066947686ab2cd01768f202816430,PennController,47,0,frases,NULL,Selector,classificacao,Selection,negativa,1737119296132,negativa;neutra;positiva
1737119901,bdf066947686ab2cd01768f202816430,PennController,47,0,frases,NULL,PennController,48,_Trial_,End,1737119296133,NULL
1737119901,bdf066947686ab2cd01768f202816430,PennController,48,0,frases,NULL,PennController,49,_Trial_,Start,1737119296134,NULL
1737119901,bdf066947686ab2cd01768f202816430,PennController,48,0,frases,NULL,Selector,classificacao,Selection,neutra,1737119305004,negativa;neutra;positiva
1737119901,bdf066947686ab2cd01768f202816430,PennController,48,0,frases,NULL,PennController,49,_Trial_,End,1737119305005,NULL
1737119901,bdf066947686ab2cd01768f202816430,PennController,49,0,frases,NULL,PennController,50,_Trial_,Start,1737119305006,NULL
1737119901,bdf066947686ab2cd01768f202816430,PennController,49,0,frases,NULL,Selector,classificacao,Selection,positiva,1737119310344,negativa;neutra;positiva
1737119901,bdf066947686ab2cd01768f202816430,PennController,49,0,frases,NULL,PennController,50,_Trial_,End,1737119310345,NULL
1737119901,bdf066947686ab2cd01768f202816430,PennController,50,0,frases,NULL,PennController,51,_Trial_,Start,1737119310345,NULL
1737119901,bdf066947686ab2cd01768f202816430,PennController,50,0,frases,NULL,Selector,classificacao,Selection,positiva,1737119322257,negativa;neutra;positiva
1737119901,bdf066947686ab2cd01768f202816430,PennController,50,0,frases,NULL,PennController,51,_Trial_,End,1737119322258,NULL
1737119901,bdf066947686ab2cd01768f202816430,PennController,51,0,frases,NULL,PennController,52,_Trial_,Start,1737119322258,NULL
1737119901,bdf066947686ab2cd01768f202816430,PennController,51,0,frases,NULL,Selector,classificacao,Selection,neutra,1737119325278,negativa;neutra;positiva
1737119901,bdf066947686ab2cd01768f202816430,PennController,51,0,frases,NULL,PennController,52,_Trial_,End,1737119325279,NULL
1737119901,bdf066947686ab2cd01768f202816430,PennController,52,0,frases,NULL,PennController,53,_Trial_,Start,1737119325279,NULL
1737119901,bdf066947686ab2cd01768f202816430,PennController,52,0,frases,NULL,Selector,classificacao,Selection,negativa,1737119334770,negativa;neutra;positiva
1737119901,bdf066947686ab2cd01768f202816430,PennController,52,0,frases,NULL,PennController,53,_Trial_,End,1737119334771,NULL
1737119901,bdf066947686ab2cd01768f202816430,PennController,53,0,frases,NULL,PennController,54,_Trial_,Start,1737119334773,NULL
1737119901,bdf066947686ab2cd01768f202816430,PennController,53,0,frases,NULL,Selector,classificacao,Selection,neutra,1737119341091,negativa;neutra;positiva
1737119901,bdf066947686ab2cd01768f202816430,PennController,53,0,frases,NULL,PennController,54,_Trial_,End,1737119341092,NULL
1737119901,bdf066947686ab2cd01768f202816430,PennController,54,0,frases,NULL,PennController,55,_Trial_,Start,1737119341092,NULL
1737119901,bdf066947686ab2cd01768f202816430,PennController,54,0,frases,NULL,Selector,classificacao,Selection,neutra,1737119347052,negativa;neutra;positiva
1737119901,bdf066947686ab2cd01768f202816430,PennController,54,0,frases,NULL,PennController,55,_Trial_,End,1737119347053,NULL
1737119901,bdf066947686ab2cd01768f202816430,PennController,55,0,frases,NULL,PennController,56,_Trial_,Start,1737119347054,NULL
1737119901,bdf066947686ab2cd01768f202816430,PennController,55,0,frases,NULL,Selector,classificacao,Selection,neutra,1737119349910,negativa;neutra;positiva
1737119901,bdf066947686ab2cd01768f202816430,PennController,55,0,frases,NULL,PennController,56,_Trial_,End,1737119349911,NULL
1737119901,bdf066947686ab2cd01768f202816430,PennController,56,0,frases,NULL,PennController,57,_Trial_,Start,1737119349912,NULL
1737119901,bdf066947686ab2cd01768f202816430,PennController,56,0,frases,NULL,Selector,classificacao,Selection,positiva,1737119355479,negativa;neutra;positiva
1737119901,bdf066947686ab2cd01768f202816430,PennController,56,0,frases,NULL,PennController,57,_Trial_,End,1737119355480,NULL
1737119901,bdf066947686ab2cd01768f202816430,PennController,57,0,frases,NULL,PennController,58,_Trial_,Start,1737119355481,NULL
1737119901,bdf066947686ab2cd01768f202816430,PennController,57,0,frases,NULL,Selector,classificacao,Selection,negativa,1737119362825,negativa;neutra;positiva
1737119901,bdf066947686ab2cd01768f202816430,PennController,57,0,frases,NULL,PennController,58,_Trial_,End,1737119362826,NULL
1737119901,bdf066947686ab2cd01768f202816430,PennController,58,0,frases,NULL,PennController,59,_Trial_,Start,1737119362827,NULL
1737119901,bdf066947686ab2cd01768f202816430,PennController,58,0,frases,NULL,Selector,classificacao,Selection,neutra,1737119372080,negativa;neutra;positiva
1737119901,bdf066947686ab2cd01768f202816430,PennController,58,0,frases,NULL,PennController,59,_Trial_,End,1737119372081,NULL
1737119901,bdf066947686ab2cd01768f202816430,PennController,59,0,frases,NULL,PennController,60,_Trial_,Start,1737119372081,NULL
1737119901,bdf066947686ab2cd01768f202816430,PennController,59,0,frases,NULL,Selector,classificacao,Selection,neutra,1737119375329,negativa;neutra;positiva
1737119901,bdf066947686ab2cd01768f202816430,PennController,59,0,frases,NULL,PennController,60,_Trial_,End,1737119375330,NULL
1737119901,bdf066947686ab2cd01768f202816430,PennController,60,0,frases,NULL,PennController,61,_Trial_,Start,1737119375330,NULL
1737119901,bdf066947686ab2cd01768f202816430,PennController,60,0,frases,NULL,Selector,classificacao,Selection,negativa,1737119383832,negativa;neutra;positiva
1737119901,bdf066947686ab2cd01768f202816430,PennController,60,0,frases,NULL,PennController,61,_Trial_,End,1737119383833,NULL
1737119901,bdf066947686ab2cd01768f202816430,PennController,61,0,frases,NULL,PennController,62,_Trial_,Start,1737119383834,NULL
1737119901,bdf066947686ab2cd01768f202816430,PennController,61,0,frases,NULL,Selector,classificacao,Selection,positiva,1737119387044,negativa;neutra;positiva
1737119901,bdf066947686ab2cd01768f202816430,PennController,61,0,frases,NULL,PennController,62,_Trial_,End,1737119387045,NULL
1737119901,bdf066947686ab2cd01768f202816430,PennController,62,0,frases,NULL,PennController,63,_Trial_,Start,1737119387045,NULL
1737119901,bdf066947686ab2cd01768f202816430,PennController,62,0,frases,NULL,Selector,classificacao,Selection,neutra,1737119392008,negativa;neutra;positiva
1737119901,bdf066947686ab2cd01768f202816430,PennController,62,0,frases,NULL,PennController,63,_Trial_,End,1737119392008,NULL
1737119901,bdf066947686ab2cd01768f202816430,PennController,63,0,frases,NULL,PennController,64,_Trial_,Start,1737119392009,NULL
1737119901,bdf066947686ab2cd01768f202816430,PennController,63,0,frases,NULL,Selector,classificacao,Selection,neutra,1737119401774,negativa;neutra;positiva
1737119901,bdf066947686ab2cd01768f202816430,PennController,63,0,frases,NULL,PennController,64,_Trial_,End,1737119401775,NULL
1737119901,bdf066947686ab2cd01768f202816430,PennController,64,0,frases,NULL,PennController,65,_Trial_,Start,1737119401776,NULL
1737119901,bdf066947686ab2cd01768f202816430,PennController,64,0,frases,NULL,Selector,classificacao,Selection,neutra,1737119404499,negativa;neutra;positiva
1737119901,bdf066947686ab2cd01768f202816430,PennController,64,0,frases,NULL,PennController,65,_Trial_,End,1737119404499,NULL
1737119901,bdf066947686ab2cd01768f202816430,PennController,65,0,frases,NULL,PennController,66,_Trial_,Start,1737119404500,NULL
1737119901,bdf066947686ab2cd01768f202816430,PennController,65,0,frases,NULL,Selector,classificacao,Selection,neutra,1737119407036,negativa;neutra;positiva
1737119901,bdf066947686ab2cd01768f202816430,PennController,65,0,frases,NULL,PennController,66,_Trial_,End,1737119407036,NULL
1737119901,bdf066947686ab2cd01768f202816430,PennController,66,0,frases,NULL,PennController,67,_Trial_,Start,1737119407037,NULL
1737119901,bdf066947686ab2cd01768f202816430,PennController,66,0,frases,NULL,Selector,classificacao,Selection,negativa,1737119411248,negativa;neutra;positiva
1737119901,bdf066947686ab2cd01768f202816430,PennController,66,0,frases,NULL,PennController,67,_Trial_,End,1737119411249,NULL
1737119901,bdf066947686ab2cd01768f202816430,PennController,67,0,frases,NULL,PennController,68,_Trial_,Start,1737119411250,NULL
1737119901,bdf066947686ab2cd01768f202816430,PennController,67,0,frases,NULL,Selector,classificacao,Selection,neutra,1737119414554,negativa;neutra;positiva
1737119901,bdf066947686ab2cd01768f202816430,PennController,67,0,frases,NULL,PennController,68,_Trial_,End,1737119414554,NULL
1737119901,bdf066947686ab2cd01768f202816430,PennController,68,0,frases,NULL,PennController,69,_Trial_,Start,1737119414555,NULL
1737119901,bdf066947686ab2cd01768f202816430,PennController,68,0,frases,NULL,Selector,classificacao,Selection,neutra,1737119421914,negativa;neutra;positiva
1737119901,bdf066947686ab2cd01768f202816430,PennController,68,0,frases,NULL,PennController,69,_Trial_,End,1737119421915,NULL
1737119901,bdf066947686ab2cd01768f202816430,PennController,69,0,frases,NULL,PennController,70,_Trial_,Start,1737119421916,NULL
1737119901,bdf066947686ab2cd01768f202816430,PennController,69,0,frases,NULL,Selector,classificacao,Selection,negativa,1737119424076,negativa;neutra;positiva
1737119901,bdf066947686ab2cd01768f202816430,PennController,69,0,frases,NULL,PennController,70,_Trial_,End,1737119424077,NULL
1737119901,bdf066947686ab2cd01768f202816430,PennController,70,0,frases,NULL,PennController,71,_Trial_,Start,1737119424077,NULL
1737119901,bdf066947686ab2cd01768f202816430,PennController,70,0,frases,NULL,Selector,classificacao,Selection,neutra,1737119427912,negativa;neutra;positiva
1737119901,bdf066947686ab2cd01768f202816430,PennController,70,0,frases,NULL,PennController,71,_Trial_,End,1737119427913,NULL
1737119901,bdf066947686ab2cd01768f202816430,PennController,71,0,frases,NULL,PennController,72,_Trial_,Start,1737119427914,NULL
1737119901,bdf066947686ab2cd01768f202816430,PennController,71,0,frases,NULL,Selector,classificacao,Selection,neutra,1737119435054,negativa;neutra;positiva
1737119901,bdf066947686ab2cd01768f202816430,PennController,71,0,frases,NULL,PennController,72,_Trial_,End,1737119435055,NULL
1737119901,bdf066947686ab2cd01768f202816430,PennController,72,0,frases,NULL,PennController,73,_Trial_,Start,1737119435055,NULL
1737119901,bdf066947686ab2cd01768f202816430,PennController,72,0,frases,NULL,Selector,classificacao,Selection,positiva,1737119438000,negativa;neutra;positiva
1737119901,bdf066947686ab2cd01768f202816430,PennController,72,0,frases,NULL,PennController,73,_Trial_,End,1737119438001,NULL
1737119901,bdf066947686ab2cd01768f202816430,PennController,73,0,frases,NULL,PennController,74,_Trial_,Start,1737119438002,NULL
1737119901,bdf066947686ab2cd01768f202816430,PennController,73,0,frases,NULL,Selector,classificacao,Selection,neutra,1737119441484,negativa;neutra;positiva
1737119901,bdf066947686ab2cd01768f202816430,PennController,73,0,frases,NULL,PennController,74,_Trial_,End,1737119441485,NULL
1737119901,bdf066947686ab2cd01768f202816430,PennController,74,0,frases,NULL,PennController,75,_Trial_,Start,1737119441485,NULL
1737119901,bdf066947686ab2cd01768f202816430,PennController,74,0,frases,NULL,Selector,classificacao,Selection,neutra,1737119450592,negativa;neutra;positiva
1737119901,bdf066947686ab2cd01768f202816430,PennController,74,0,frases,NULL,PennController,75,_Trial_,End,1737119450593,NULL
1737119901,bdf066947686ab2cd01768f202816430,PennController,75,0,frases,NULL,PennController,76,_Trial_,Start,1737119450594,NULL
1737119901,bdf066947686ab2cd01768f202816430,PennController,75,0,frases,NULL,Selector,classificacao,Selection,neutra,1737119463700,negativa;neutra;positiva
1737119901,bdf066947686ab2cd01768f202816430,PennController,75,0,frases,NULL,PennController,76,_Trial_,End,1737119463701,NULL
1737119901,bdf066947686ab2cd01768f202816430,PennController,76,0,frases,NULL,PennController,77,_Trial_,Start,1737119463702,NULL
1737119901,bdf066947686ab2cd01768f202816430,PennController,76,0,frases,NULL,Selector,classificacao,Selection,neutra,1737119465932,negativa;neutra;positiva
1737119901,bdf066947686ab2cd01768f202816430,PennController,76,0,frases,NULL,PennController,77,_Trial_,End,1737119465933,NULL
1737119901,bdf066947686ab2cd01768f202816430,PennController,77,0,frases,NULL,PennController,78,_Trial_,Start,1737119465933,NULL
1737119901,bdf066947686ab2cd01768f202816430,PennController,77,0,frases,NULL,Selector,classificacao,Selection,neutra,1737119468188,negativa;neutra;positiva
1737119901,bdf066947686ab2cd01768f202816430,PennController,77,0,frases,NULL,PennController,78,_Trial_,End,1737119468189,NULL
1737119901,bdf066947686ab2cd01768f202816430,PennController,78,0,frases,NULL,PennController,79,_Trial_,Start,1737119468189,NULL
1737119901,bdf066947686ab2cd01768f202816430,PennController,78,0,frases,NULL,Selector,classificacao,Selection,neutra,1737119471382,negativa;neutra;positiva
1737119901,bdf066947686ab2cd01768f202816430,PennController,78,0,frases,NULL,PennController,79,_Trial_,End,1737119471382,NULL
1737119901,bdf066947686ab2cd01768f202816430,PennController,79,0,frases,NULL,PennController,80,_Trial_,Start,1737119471383,NULL
1737119901,bdf066947686ab2cd01768f202816430,PennController,79,0,frases,NULL,Selector,classificacao,Selection,positiva,1737119478406,negativa;neutra;positiva
1737119901,bdf066947686ab2cd01768f202816430,PennController,79,0,frases,NULL,PennController,80,_Trial_,End,1737119478408,NULL
1737119901,bdf066947686ab2cd01768f202816430,PennController,80,0,frases,NULL,PennController,81,_Trial_,Start,1737119478408,NULL
1737119901,bdf066947686ab2cd01768f202816430,PennController,80,0,frases,NULL,Selector,classificacao,Selection,negativa,1737119483153,negativa;neutra;positiva
1737119901,bdf066947686ab2cd01768f202816430,PennController,80,0,frases,NULL,PennController,81,_Trial_,End,1737119483154,NULL
1737119901,bdf066947686ab2cd01768f202816430,PennController,81,0,frases,NULL,PennController,82,_Trial_,Start,1737119483154,NULL
1737119901,bdf066947686ab2cd01768f202816430,PennController,81,0,frases,NULL,Selector,classificacao,Selection,neutra,1737119486543,negativa;neutra;positiva
1737119901,bdf066947686ab2cd01768f202816430,PennController,81,0,frases,NULL,PennController,82,_Trial_,End,1737119486544,NULL
1737119901,bdf066947686ab2cd01768f202816430,PennController,82,0,frases,NULL,PennController,83,_Trial_,Start,1737119486545,NULL
1737119901,bdf066947686ab2cd01768f202816430,PennController,82,0,frases,NULL,Selector,classificacao,Selection,neutra,1737119490458,negativa;neutra;positiva
1737119901,bdf066947686ab2cd01768f202816430,PennController,82,0,frases,NULL,PennController,83,_Trial_,End,1737119490458,NULL
1737119901,bdf066947686ab2cd01768f202816430,PennController,83,0,frases,NULL,PennController,84,_Trial_,Start,1737119490459,NULL
1737119901,bdf066947686ab2cd01768f202816430,PennController,83,0,frases,NULL,Selector,classificacao,Selection,neutra,1737119495742,negativa;neutra;positiva
1737119901,bdf066947686ab2cd01768f202816430,PennController,83,0,frases,NULL,PennController,84,_Trial_,End,1737119495742,NULL
1737119901,bdf066947686ab2cd01768f202816430,PennController,84,0,frases,NULL,PennController,85,_Trial_,Start,1737119495743,NULL
1737119901,bdf066947686ab2cd01768f202816430,PennController,84,0,frases,NULL,Selector,classificacao,Selection,neutra,1737119499266,negativa;neutra;positiva
1737119901,bdf066947686ab2cd01768f202816430,PennController,84,0,frases,NULL,PennController,85,_Trial_,End,1737119499267,NULL
1737119901,bdf066947686ab2cd01768f202816430,PennController,85,0,frases,NULL,PennController,86,_Trial_,Start,1737119499268,NULL
1737119901,bdf066947686ab2cd01768f202816430,PennController,85,0,frases,NULL,Selector,classificacao,Selection,positiva,1737119503276,negativa;neutra;positiva
1737119901,bdf066947686ab2cd01768f202816430,PennController,85,0,frases,NULL,PennController,86,_Trial_,End,1737119503277,NULL
1737119901,bdf066947686ab2cd01768f202816430,PennController,86,0,frases,NULL,PennController,87,_Trial_,Start,1737119503278,NULL
1737119901,bdf066947686ab2cd01768f202816430,PennController,86,0,frases,NULL,Selector,classificacao,Selection,neutra,1737119509133,negativa;neutra;positiva
1737119901,bdf066947686ab2cd01768f202816430,PennController,86,0,frases,NULL,PennController,87,_Trial_,End,1737119509133,NULL
1737119901,bdf066947686ab2cd01768f202816430,PennController,87,0,frases,NULL,PennController,88,_Trial_,Start,1737119509134,NULL
1737119901,bdf066947686ab2cd01768f202816430,PennController,87,0,frases,NULL,Selector,classificacao,Selection,neutra,1737119521575,negativa;neutra;positiva
1737119901,bdf066947686ab2cd01768f202816430,PennController,87,0,frases,NULL,PennController,88,_Trial_,End,1737119521576,NULL
1737119901,bdf066947686ab2cd01768f202816430,PennController,88,0,frases,NULL,PennController,89,_Trial_,Start,1737119521577,NULL
1737119901,bdf066947686ab2cd01768f202816430,PennController,88,0,frases,NULL,Selector,classificacao,Selection,neutra,1737119525370,negativa;neutra;positiva
1737119901,bdf066947686ab2cd01768f202816430,PennController,88,0,frases,NULL,PennController,89,_Trial_,End,1737119525370,NULL
1737119901,bdf066947686ab2cd01768f202816430,PennController,89,0,frases,NULL,PennController,90,_Trial_,Start,1737119525371,NULL
1737119901,bdf066947686ab2cd01768f202816430,PennController,89,0,frases,NULL,Selector,classificacao,Selection,neutra,1737119526960,negativa;neutra;positiva
1737119901,bdf066947686ab2cd01768f202816430,PennController,89,0,frases,NULL,PennController,90,_Trial_,End,1737119526961,NULL
1737119901,bdf066947686ab2cd01768f202816430,PennController,90,0,frases,NULL,PennController,91,_Trial_,Start,1737119526961,NULL
1737119901,bdf066947686ab2cd01768f202816430,PennController,90,0,frases,NULL,Selector,classificacao,Selection,positiva,1737119535707,negativa;neutra;positiva
1737119901,bdf066947686ab2cd01768f202816430,PennController,90,0,frases,NULL,PennController,91,_Trial_,End,1737119535708,NULL
1737119901,bdf066947686ab2cd01768f202816430,PennController,91,0,frases,NULL,PennController,92,_Trial_,Start,1737119535709,NULL
1737119901,bdf066947686ab2cd01768f202816430,PennController,91,0,frases,NULL,Selector,classificacao,Selection,neutra,1737119542062,negativa;neutra;positiva
1737119901,bdf066947686ab2cd01768f202816430,PennController,91,0,frases,NULL,PennController,92,_Trial_,End,1737119542062,NULL
1737119901,bdf066947686ab2cd01768f202816430,PennController,92,0,frases,NULL,PennController,93,_Trial_,Start,1737119542063,NULL
1737119901,bdf066947686ab2cd01768f202816430,PennController,92,0,frases,NULL,Selector,classificacao,Selection,negativa,1737119544976,negativa;neutra;positiva
1737119901,bdf066947686ab2cd01768f202816430,PennController,92,0,frases,NULL,PennController,93,_Trial_,End,1737119544977,NULL
1737119901,bdf066947686ab2cd01768f202816430,PennController,93,0,frases,NULL,PennController,94,_Trial_,Start,1737119544978,NULL
1737119901,bdf066947686ab2cd01768f202816430,PennController,93,0,frases,NULL,Selector,classificacao,Selection,neutra,1737119551936,negativa;neutra;positiva
1737119901,bdf066947686ab2cd01768f202816430,PennController,93,0,frases,NULL,PennController,94,_Trial_,End,1737119551937,NULL
1737119901,bdf066947686ab2cd01768f202816430,PennController,94,0,frases,NULL,PennController,95,_Trial_,Start,1737119551938,NULL
1737119901,bdf066947686ab2cd01768f202816430,PennController,94,0,frases,NULL,Selector,classificacao,Selection,neutra,1737119554670,negativa;neutra;positiva
1737119901,bdf066947686ab2cd01768f202816430,PennController,94,0,frases,NULL,PennController,95,_Trial_,End,1737119554671,NULL
1737119901,bdf066947686ab2cd01768f202816430,PennController,95,0,frases,NULL,PennController,96,_Trial_,Start,1737119554672,NULL
1737119901,bdf066947686ab2cd01768f202816430,PennController,95,0,frases,NULL,Selector,classificacao,Selection,neutra,1737119559570,negativa;neutra;positiva
1737119901,bdf066947686ab2cd01768f202816430,PennController,95,0,frases,NULL,PennController,96,_Trial_,End,1737119559571,NULL
1737119901,bdf066947686ab2cd01768f202816430,PennController,96,0,frases,NULL,PennController,97,_Trial_,Start,1737119559572,NULL
1737119901,bdf066947686ab2cd01768f202816430,PennController,96,0,frases,NULL,Selector,classificacao,Selection,neutra,1737119561185,negativa;neutra;positiva
1737119901,bdf066947686ab2cd01768f202816430,PennController,96,0,frases,NULL,PennController,97,_Trial_,End,1737119561186,NULL
1737119901,bdf066947686ab2cd01768f202816430,PennController,97,0,frases,NULL,PennController,98,_Trial_,Start,1737119561187,NULL
1737119901,bdf066947686ab2cd01768f202816430,PennController,97,0,frases,NULL,Selector,classificacao,Selection,neutra,1737119563331,negativa;neutra;positiva
1737119901,bdf066947686ab2cd01768f202816430,PennController,97,0,frases,NULL,PennController,98,_Trial_,End,1737119563332,NULL
1737119901,bdf066947686ab2cd01768f202816430,PennController,98,0,frases,NULL,PennController,99,_Trial_,Start,1737119563333,NULL
1737119901,bdf066947686ab2cd01768f202816430,PennController,98,0,frases,NULL,Selector,classificacao,Selection,negativa,1737119568555,negativa;neutra;positiva
1737119901,bdf066947686ab2cd01768f202816430,PennController,98,0,frases,NULL,PennController,99,_Trial_,End,1737119568556,NULL
1737119901,bdf066947686ab2cd01768f202816430,PennController,99,0,frases,NULL,PennController,100,_Trial_,Start,1737119568556,NULL
1737119901,bdf066947686ab2cd01768f202816430,PennController,99,0,frases,NULL,Selector,classificacao,Selection,negativa,1737119571201,negativa;neutra;positiva
1737119901,bdf066947686ab2cd01768f202816430,PennController,99,0,frases,NULL,PennController,100,_Trial_,End,1737119571202,NULL
1737119901,bdf066947686ab2cd01768f202816430,PennController,100,0,frases,NULL,PennController,101,_Trial_,Start,1737119571203,NULL
1737119901,bdf066947686ab2cd01768f202816430,PennController,100,0,frases,NULL,Selector,classificacao,Selection,positiva,1737119575914,negativa;neutra;positiva
1737119901,bdf066947686ab2cd01768f202816430,PennController,100,0,frases,NULL,PennController,101,_Trial_,End,1737119575915,NULL
1737119901,bdf066947686ab2cd01768f202816430,PennController,101,0,frases,NULL,PennController,102,_Trial_,Start,1737119575916,NULL
1737119901,bdf066947686ab2cd01768f202816430,PennController,101,0,frases,NULL,Selector,classificacao,Selection,negativa,1737119585044,negativa;neutra;positiva
1737119901,bdf066947686ab2cd01768f202816430,PennController,101,0,frases,NULL,PennController,102,_Trial_,End,1737119585044,NULL
1737119901,bdf066947686ab2cd01768f202816430,PennController,102,0,frases,NULL,PennController,103,_Trial_,Start,1737119585045,NULL
1737119901,bdf066947686ab2cd01768f202816430,PennController,102,0,frases,NULL,Selector,classificacao,Selection,neutra,1737119588356,negativa;neutra;positiva
1737119901,bdf066947686ab2cd01768f202816430,PennController,102,0,frases,NULL,PennController,103,_Trial_,End,1737119588356,NULL
1737119901,bdf066947686ab2cd01768f202816430,PennController,103,0,frases,NULL,PennController,104,_Trial_,Start,1737119588357,NULL
1737119901,bdf066947686ab2cd01768f202816430,PennController,103,0,frases,NULL,Selector,classificacao,Selection,neutra,1737119595724,negativa;neutra;positiva
1737119901,bdf066947686ab2cd01768f202816430,PennController,103,0,frases,NULL,PennController,104,_Trial_,End,1737119595725,NULL
1737119901,bdf066947686ab2cd01768f202816430,PennController,104,0,frases,NULL,PennController,105,_Trial_,Start,1737119595726,NULL
1737119901,bdf066947686ab2cd01768f202816430,PennController,104,0,frases,NULL,Selector,classificacao,Selection,neutra,1737119618610,negativa;neutra;positiva
1737119901,bdf066947686ab2cd01768f202816430,PennController,104,0,frases,NULL,PennController,105,_Trial_,End,1737119618611,NULL
1737119901,bdf066947686ab2cd01768f202816430,PennController,105,0,frases,NULL,PennController,106,_Trial_,Start,1737119618611,NULL
1737119901,bdf066947686ab2cd01768f202816430,PennController,105,0,frases,NULL,Selector,classificacao,Selection,positiva,1737119623458,negativa;neutra;positiva
1737119901,bdf066947686ab2cd01768f202816430,PennController,105,0,frases,NULL,PennController,106,_Trial_,End,1737119623458,NULL
1737119901,bdf066947686ab2cd01768f202816430,PennController,106,0,frases,NULL,PennController,107,_Trial_,Start,1737119623459,NULL
1737119901,bdf066947686ab2cd01768f202816430,PennController,106,0,frases,NULL,Selector,classificacao,Selection,neutra,1737119625642,negativa;neutra;positiva
1737119901,bdf066947686ab2cd01768f202816430,PennController,106,0,frases,NULL,PennController,107,_Trial_,End,1737119625643,NULL
1737119901,bdf066947686ab2cd01768f202816430,PennController,107,0,frases,NULL,PennController,108,_Trial_,Start,1737119625644,NULL
1737119901,bdf066947686ab2cd01768f202816430,PennController,107,0,frases,NULL,Selector,classificacao,Selection,neutra,1737119631202,negativa;neutra;positiva
1737119901,bdf066947686ab2cd01768f202816430,PennController,107,0,frases,NULL,PennController,108,_Trial_,End,1737119631203,NULL
1737119901,bdf066947686ab2cd01768f202816430,PennController,108,0,frases,NULL,PennController,109,_Trial_,Start,1737119631203,NULL
1737119901,bdf066947686ab2cd01768f202816430,PennController,108,0,frases,NULL,Selector,classificacao,Selection,neutra,1737119640183,negativa;neutra;positiva
1737119901,bdf066947686ab2cd01768f202816430,PennController,108,0,frases,NULL,PennController,109,_Trial_,End,1737119640183,NULL
1737119901,bdf066947686ab2cd01768f202816430,PennController,109,0,frases,NULL,PennController,110,_Trial_,Start,1737119640184,NULL
1737119901,bdf066947686ab2cd01768f202816430,PennController,109,0,frases,NULL,Selector,classificacao,Selection,positiva,1737119644072,negativa;neutra;positiva
1737119901,bdf066947686ab2cd01768f202816430,PennController,109,0,frases,NULL,PennController,110,_Trial_,End,1737119644073,NULL
1737119901,bdf066947686ab2cd01768f202816430,PennController,110,0,frases,NULL,PennController,111,_Trial_,Start,1737119644074,NULL
1737119901,bdf066947686ab2cd01768f202816430,PennController,110,0,frases,NULL,Selector,classificacao,Selection,neutra,1737119649804,negativa;neutra;positiva
1737119901,bdf066947686ab2cd01768f202816430,PennController,110,0,frases,NULL,PennController,111,_Trial_,End,1737119649805,NULL
1737119901,bdf066947686ab2cd01768f202816430,PennController,111,0,frases,NULL,PennController,112,_Trial_,Start,1737119649806,NULL
1737119901,bdf066947686ab2cd01768f202816430,PennController,111,0,frases,NULL,Selector,classificacao,Selection,negativa,1737119656700,negativa;neutra;positiva
1737119901,bdf066947686ab2cd01768f202816430,PennController,111,0,frases,NULL,PennController,112,_Trial_,End,1737119656701,NULL
1737119901,bdf066947686ab2cd01768f202816430,PennController,112,0,frases,NULL,PennController,113,_Trial_,Start,1737119656701,NULL
1737119901,bdf066947686ab2cd01768f202816430,PennController,112,0,frases,NULL,Selector,classificacao,Selection,negativa,1737119663434,negativa;neutra;positiva
1737119901,bdf066947686ab2cd01768f202816430,PennController,112,0,frases,NULL,PennController,113,_Trial_,End,1737119663435,NULL
1737119901,bdf066947686ab2cd01768f202816430,PennController,113,0,frases,NULL,PennController,114,_Trial_,Start,1737119663436,NULL
1737119901,bdf066947686ab2cd01768f202816430,PennController,113,0,frases,NULL,Selector,classificacao,Selection,neutra,1737119667890,negativa;neutra;positiva
1737119901,bdf066947686ab2cd01768f202816430,PennController,113,0,frases,NULL,PennController,114,_Trial_,End,1737119667891,NULL
1737119901,bdf066947686ab2cd01768f202816430,PennController,114,0,frases,NULL,PennController,115,_Trial_,Start,1737119667892,NULL
1737119901,bdf066947686ab2cd01768f202816430,PennController,114,0,frases,NULL,Selector,classificacao,Selection,neutra,1737119672782,negativa;neutra;positiva
1737119901,bdf066947686ab2cd01768f202816430,PennController,114,0,frases,NULL,PennController,115,_Trial_,End,1737119672783,NULL
1737119901,bdf066947686ab2cd01768f202816430,PennController,115,0,frases,NULL,PennController,116,_Trial_,Start,1737119672783,NULL
1737119901,bdf066947686ab2cd01768f202816430,PennController,115,0,frases,NULL,Selector,classificacao,Selection,neutra,1737119674115,negativa;neutra;positiva
1737119901,bdf066947686ab2cd01768f202816430,PennController,115,0,frases,NULL,PennController,116,_Trial_,End,1737119674115,NULL
1737119901,bdf066947686ab2cd01768f202816430,PennController,116,0,frases,NULL,PennController,117,_Trial_,Start,1737119674116,NULL
1737119901,bdf066947686ab2cd01768f202816430,PennController,116,0,frases,NULL,Selector,classificacao,Selection,neutra,1737119680205,negativa;neutra;positiva
1737119901,bdf066947686ab2cd01768f202816430,PennController,116,0,frases,NULL,PennController,117,_Trial_,End,1737119680206,NULL
1737119901,bdf066947686ab2cd01768f202816430,PennController,117,0,frases,NULL,PennController,118,_Trial_,Start,1737119680206,NULL
1737119901,bdf066947686ab2cd01768f202816430,PennController,117,0,frases,NULL,Selector,classificacao,Selection,neutra,1737119689915,negativa;neutra;positiva
1737119901,bdf066947686ab2cd01768f202816430,PennController,117,0,frases,NULL,PennController,118,_Trial_,End,1737119689916,NULL
1737119901,bdf066947686ab2cd01768f202816430,PennController,118,0,frases,NULL,PennController,119,_Trial_,Start,1737119689917,NULL
1737119901,bdf066947686ab2cd01768f202816430,PennController,118,0,frases,NULL,Selector,classificacao,Selection,negativa,1737119696858,negativa;neutra;positiva
1737119901,bdf066947686ab2cd01768f202816430,PennController,118,0,frases,NULL,PennController,119,_Trial_,End,1737119696858,NULL
1737119901,bdf066947686ab2cd01768f202816430,PennController,119,0,frases,NULL,PennController,120,_Trial_,Start,1737119696859,NULL
1737119901,bdf066947686ab2cd01768f202816430,PennController,119,0,frases,NULL,Selector,classificacao,Selection,negativa,1737119703418,negativa;neutra;positiva
1737119901,bdf066947686ab2cd01768f202816430,PennController,119,0,frases,NULL,PennController,120,_Trial_,End,1737119703418,NULL
1737119901,bdf066947686ab2cd01768f202816430,PennController,120,0,frases,NULL,PennController,121,_Trial_,Start,1737119703419,NULL
1737119901,bdf066947686ab2cd01768f202816430,PennController,120,0,frases,NULL,Selector,classificacao,Selection,neutra,1737119707834,negativa;neutra;positiva
1737119901,bdf066947686ab2cd01768f202816430,PennController,120,0,frases,NULL,PennController,121,_Trial_,End,1737119707835,NULL
1737119901,bdf066947686ab2cd01768f202816430,PennController,121,0,frases,NULL,PennController,122,_Trial_,Start,1737119707836,NULL
1737119901,bdf066947686ab2cd01768f202816430,PennController,121,0,frases,NULL,Selector,classificacao,Selection,positiva,1737119719146,negativa;neutra;positiva
1737119901,bdf066947686ab2cd01768f202816430,PennController,121,0,frases,NULL,PennController,122,_Trial_,End,1737119719147,NULL
1737119901,bdf066947686ab2cd01768f202816430,PennController,122,0,frases,NULL,PennController,123,_Trial_,Start,1737119719148,NULL
1737119901,bdf066947686ab2cd01768f202816430,PennController,122,0,frases,NULL,Selector,classificacao,Selection,positiva,1737119722952,negativa;neutra;positiva
1737119901,bdf066947686ab2cd01768f202816430,PennController,122,0,frases,NULL,PennController,123,_Trial_,End,1737119722953,NULL
1737119901,bdf066947686ab2cd01768f202816430,PennController,123,0,frases,NULL,PennController,124,_Trial_,Start,1737119722953,NULL
1737119901,bdf066947686ab2cd01768f202816430,PennController,123,0,frases,NULL,Selector,classificacao,Selection,neutra,1737119726398,negativa;neutra;positiva
1737119901,bdf066947686ab2cd01768f202816430,PennController,123,0,frases,NULL,PennController,124,_Trial_,End,1737119726399,NULL
1737119901,bdf066947686ab2cd01768f202816430,PennController,124,0,frases,NULL,PennController,125,_Trial_,Start,1737119726400,NULL
1737119901,bdf066947686ab2cd01768f202816430,PennController,124,0,frases,NULL,Selector,classificacao,Selection,neutra,1737119728074,negativa;neutra;positiva
1737119901,bdf066947686ab2cd01768f202816430,PennController,124,0,frases,NULL,PennController,125,_Trial_,End,1737119728075,NULL
1737119901,bdf066947686ab2cd01768f202816430,PennController,125,0,frases,NULL,PennController,126,_Trial_,Start,1737119728076,NULL
1737119901,bdf066947686ab2cd01768f202816430,PennController,125,0,frases,NULL,Selector,classificacao,Selection,negativa,1737119734596,negativa;neutra;positiva
1737119901,bdf066947686ab2cd01768f202816430,PennController,125,0,frases,NULL,PennController,126,_Trial_,End,1737119734596,NULL
1737119901,bdf066947686ab2cd01768f202816430,PennController,126,0,frases,NULL,PennController,127,_Trial_,Start,1737119734597,NULL
1737119901,bdf066947686ab2cd01768f202816430,PennController,126,0,frases,NULL,Selector,classificacao,Selection,neutra,1737119736420,negativa;neutra;positiva
1737119901,bdf066947686ab2cd01768f202816430,PennController,126,0,frases,NULL,PennController,127,_Trial_,End,1737119736421,NULL
1737119901,bdf066947686ab2cd01768f202816430,PennController,127,0,frases,NULL,PennController,128,_Trial_,Start,1737119736422,NULL
1737119901,bdf066947686ab2cd01768f202816430,PennController,127,0,frases,NULL,Selector,classificacao,Selection,neutra,1737119738056,negativa;neutra;positiva
1737119901,bdf066947686ab2cd01768f202816430,PennController,127,0,frases,NULL,PennController,128,_Trial_,End,1737119738057,NULL
1737119901,bdf066947686ab2cd01768f202816430,PennController,128,0,frases,NULL,PennController,129,_Trial_,Start,1737119738057,NULL
1737119901,bdf066947686ab2cd01768f202816430,PennController,128,0,frases,NULL,Selector,classificacao,Selection,neutra,1737119743130,negativa;neutra;positiva
1737119901,bdf066947686ab2cd01768f202816430,PennController,128,0,frases,NULL,PennController,129,_Trial_,End,1737119743130,NULL
1737119901,bdf066947686ab2cd01768f202816430,PennController,129,0,frases,NULL,PennController,130,_Trial_,Start,1737119743131,NULL
1737119901,bdf066947686ab2cd01768f202816430,PennController,129,0,frases,NULL,Selector,classificacao,Selection,neutra,1737119745048,negativa;neutra;positiva
1737119901,bdf066947686ab2cd01768f202816430,PennController,129,0,frases,NULL,PennController,130,_Trial_,End,1737119745049,NULL
1737119901,bdf066947686ab2cd01768f202816430,PennController,130,0,frases,NULL,PennController,131,_Trial_,Start,1737119745049,NULL
1737119901,bdf066947686ab2cd01768f202816430,PennController,130,0,frases,NULL,Selector,classificacao,Selection,neutra,1737119752808,negativa;neutra;positiva
1737119901,bdf066947686ab2cd01768f202816430,PennController,130,0,frases,NULL,PennController,131,_Trial_,End,1737119752808,NULL
1737119901,bdf066947686ab2cd01768f202816430,PennController,131,0,frases,NULL,PennController,132,_Trial_,Start,1737119752809,NULL
1737119901,bdf066947686ab2cd01768f202816430,PennController,131,0,frases,NULL,Selector,classificacao,Selection,positiva,1737119757758,negativa;neutra;positiva
1737119901,bdf066947686ab2cd01768f202816430,PennController,131,0,frases,NULL,PennController,132,_Trial_,End,1737119757759,NULL
1737119901,bdf066947686ab2cd01768f202816430,PennController,132,0,frases,NULL,PennController,133,_Trial_,Start,1737119757761,NULL
1737119901,bdf066947686ab2cd01768f202816430,PennController,132,0,frases,NULL,Selector,classificacao,Selection,neutra,1737119792284,negativa;neutra;positiva
1737119901,bdf066947686ab2cd01768f202816430,PennController,132,0,frases,NULL,PennController,133,_Trial_,End,1737119792284,NULL
1737119901,bdf066947686ab2cd01768f202816430,PennController,133,0,frases,NULL,PennController,134,_Trial_,Start,1737119792285,NULL
1737119901,bdf066947686ab2cd01768f202816430,PennController,133,0,frases,NULL,Selector,classificacao,Selection,neutra,1737119795314,negativa;neutra;positiva
1737119901,bdf066947686ab2cd01768f202816430,PennController,133,0,frases,NULL,PennController,134,_Trial_,End,1737119795314,NULL
1737119901,bdf066947686ab2cd01768f202816430,PennController,134,0,frases,NULL,PennController,135,_Trial_,Start,1737119795315,NULL
1737119901,bdf066947686ab2cd01768f202816430,PennController,134,0,frases,NULL,Selector,classificacao,Selection,neutra,1737119798110,negativa;neutra;positiva
1737119901,bdf066947686ab2cd01768f202816430,PennController,134,0,frases,NULL,PennController,135,_Trial_,End,1737119798110,NULL
1737119901,bdf066947686ab2cd01768f202816430,PennController,135,0,frases,NULL,PennController,136,_Trial_,Start,1737119798111,NULL
1737119901,bdf066947686ab2cd01768f202816430,PennController,135,0,frases,NULL,Selector,classificacao,Selection,neutra,1737119800632,negativa;neutra;positiva
1737119901,bdf066947686ab2cd01768f202816430,PennController,135,0,frases,NULL,PennController,136,_Trial_,End,1737119800633,NULL
1737119901,bdf066947686ab2cd01768f202816430,PennController,136,0,frases,NULL,PennController,137,_Trial_,Start,1737119800633,NULL
1737119901,bdf066947686ab2cd01768f202816430,PennController,136,0,frases,NULL,Selector,classificacao,Selection,neutra,1737119804767,negativa;neutra;positiva
1737119901,bdf066947686ab2cd01768f202816430,PennController,136,0,frases,NULL,PennController,137,_Trial_,End,1737119804768,NULL
1737119901,bdf066947686ab2cd01768f202816430,PennController,137,0,frases,NULL,PennController,138,_Trial_,Start,1737119804768,NULL
1737119901,bdf066947686ab2cd01768f202816430,PennController,137,0,frases,NULL,Selector,classificacao,Selection,negativa,1737119811482,negativa;neutra;positiva
1737119901,bdf066947686ab2cd01768f202816430,PennController,137,0,frases,NULL,PennController,138,_Trial_,End,1737119811482,NULL
1737119901,bdf066947686ab2cd01768f202816430,PennController,138,0,frases,NULL,PennController,139,_Trial_,Start,1737119811483,NULL
1737119901,bdf066947686ab2cd01768f202816430,PennController,138,0,frases,NULL,Selector,classificacao,Selection,neutra,1737119813784,negativa;neutra;positiva
1737119901,bdf066947686ab2cd01768f202816430,PennController,138,0,frases,NULL,PennController,139,_Trial_,End,1737119813785,NULL
1737119901,bdf066947686ab2cd01768f202816430,PennController,139,0,frases,NULL,PennController,140,_Trial_,Start,1737119813786,NULL
1737119901,bdf066947686ab2cd01768f202816430,PennController,139,0,frases,NULL,Selector,classificacao,Selection,positiva,1737119825746,negativa;neutra;positiva
1737119901,bdf066947686ab2cd01768f202816430,PennController,139,0,frases,NULL,PennController,140,_Trial_,End,1737119825747,NULL
1737119901,bdf066947686ab2cd01768f202816430,PennController,140,0,frases,NULL,PennController,141,_Trial_,Start,1737119825747,NULL
1737119901,bdf066947686ab2cd01768f202816430,PennController,140,0,frases,NULL,Selector,classificacao,Selection,positiva,1737119830734,negativa;neutra;positiva
1737119901,bdf066947686ab2cd01768f202816430,PennController,140,0,frases,NULL,PennController,141,_Trial_,End,1737119830735,NULL
1737119901,bdf066947686ab2cd01768f202816430,PennController,141,0,frases,NULL,PennController,142,_Trial_,Start,1737119830736,NULL
1737119901,bdf066947686ab2cd01768f202816430,PennController,141,0,frases,NULL,Selector,classificacao,Selection,negativa,1737119840198,negativa;neutra;positiva
1737119901,bdf066947686ab2cd01768f202816430,PennController,141,0,frases,NULL,PennController,142,_Trial_,End,1737119840198,NULL
1737119901,bdf066947686ab2cd01768f202816430,PennController,142,0,frases,NULL,PennController,143,_Trial_,Start,1737119840199,NULL
1737119901,bdf066947686ab2cd01768f202816430,PennController,142,0,frases,NULL,Selector,classificacao,Selection,neutra,1737119846728,negativa;neutra;positiva
1737119901,bdf066947686ab2cd01768f202816430,PennController,142,0,frases,NULL,PennController,143,_Trial_,End,1737119846729,NULL
1737119901,bdf066947686ab2cd01768f202816430,PennController,143,0,frases,NULL,PennController,144,_Trial_,Start,1737119846730,NULL
1737119901,bdf066947686ab2cd01768f202816430,PennController,143,0,frases,NULL,Selector,classificacao,Selection,neutra,1737119853226,negativa;neutra;positiva
1737119901,bdf066947686ab2cd01768f202816430,PennController,143,0,frases,NULL,PennController,144,_Trial_,End,1737119853226,NULL
1737119901,bdf066947686ab2cd01768f202816430,PennController,144,0,frases,NULL,PennController,145,_Trial_,Start,1737119853227,NULL
1737119901,bdf066947686ab2cd01768f202816430,PennController,144,0,frases,NULL,Selector,classificacao,Selection,neutra,1737119858950,negativa;neutra;positiva
1737119901,bdf066947686ab2cd01768f202816430,PennController,144,0,frases,NULL,PennController,145,_Trial_,End,1737119858951,NULL
1737119901,bdf066947686ab2cd01768f202816430,PennController,145,0,frases,NULL,PennController,146,_Trial_,Start,1737119858951,NULL
1737119901,bdf066947686ab2cd01768f202816430,PennController,145,0,frases,NULL,Selector,classificacao,Selection,neutra,1737119860650,negativa;neutra;positiva
1737119901,bdf066947686ab2cd01768f202816430,PennController,145,0,frases,NULL,PennController,146,_Trial_,End,1737119860650,NULL
1737119901,bdf066947686ab2cd01768f202816430,PennController,146,0,frases,NULL,PennController,147,_Trial_,Start,1737119860651,NULL
1737119901,bdf066947686ab2cd01768f202816430,PennController,146,0,frases,NULL,Selector,classificacao,Selection,neutra,1737119862748,negativa;neutra;positiva
1737119901,bdf066947686ab2cd01768f202816430,PennController,146,0,frases,NULL,PennController,147,_Trial_,End,1737119862749,NULL
1737119901,bdf066947686ab2cd01768f202816430,PennController,147,0,frases,NULL,PennController,148,_Trial_,Start,1737119862750,NULL
1737119901,bdf066947686ab2cd01768f202816430,PennController,147,0,frases,NULL,Selector,classificacao,Selection,positiva,1737119870304,negativa;neutra;positiva
1737119901,bdf066947686ab2cd01768f202816430,PennController,147,0,frases,NULL,PennController,148,_Trial_,End,1737119870305,NULL
1737119901,bdf066947686ab2cd01768f202816430,PennController,148,0,frases,NULL,PennController,149,_Trial_,Start,1737119870305,NULL
1737119901,bdf066947686ab2cd01768f202816430,PennController,148,0,frases,NULL,Selector,classificacao,Selection,neutra,1737119873756,negativa;neutra;positiva
1737119901,bdf066947686ab2cd01768f202816430,PennController,148,0,frases,NULL,PennController,149,_Trial_,End,1737119873757,NULL
1737119901,bdf066947686ab2cd01768f202816430,PennController,149,0,frases,NULL,PennController,150,_Trial_,Start,1737119873757,NULL
1737119901,bdf066947686ab2cd01768f202816430,PennController,149,0,frases,NULL,Selector,classificacao,Selection,neutra,1737119876824,negativa;neutra;positiva
1737119901,bdf066947686ab2cd01768f202816430,PennController,149,0,frases,NULL,PennController,150,_Trial_,End,1737119876824,NULL
1737119901,bdf066947686ab2cd01768f202816430,PennController,150,0,frases,NULL,PennController,151,_Trial_,Start,1737119876825,NULL
1737119901,bdf066947686ab2cd01768f202816430,PennController,150,0,frases,NULL,Selector,classificacao,Selection,neutra,1737119879792,negativa;neutra;positiva
1737119901,bdf066947686ab2cd01768f202816430,PennController,150,0,frases,NULL,PennController,151,_Trial_,End,1737119879793,NULL
1737119901,bdf066947686ab2cd01768f202816430,PennController,151,0,frases,NULL,PennController,152,_Trial_,Start,1737119879793,NULL
1737119901,bdf066947686ab2cd01768f202816430,PennController,151,0,frases,NULL,Selector,classificacao,Selection,neutra,1737119881914,negativa;neutra;positiva
1737119901,bdf066947686ab2cd01768f202816430,PennController,151,0,frases,NULL,PennController,152,_Trial_,End,1737119881915,NULL
1737119901,bdf066947686ab2cd01768f202816430,PennController,152,0,frases,NULL,PennController,153,_Trial_,Start,1737119881915,NULL
1737119901,bdf066947686ab2cd01768f202816430,PennController,152,0,frases,NULL,Selector,classificacao,Selection,neutra,1737119888554,negativa;neutra;positiva
1737119901,bdf066947686ab2cd01768f202816430,PennController,152,0,frases,NULL,PennController,153,_Trial_,End,1737119888554,NULL
1737119901,bdf066947686ab2cd01768f202816430,PennController,153,0,frases,NULL,PennController,154,_Trial_,Start,1737119888555,NULL
1737119901,bdf066947686ab2cd01768f202816430,PennController,153,0,frases,NULL,Selector,classificacao,Selection,negativa,1737119898678,negativa;neutra;positiva
1737119901,bdf066947686ab2cd01768f202816430,PennController,153,0,frases,NULL,PennController,154,_Trial_,End,1737119898678,NULL
1737119901,bdf066947686ab2cd01768f202816430,PennController,154,0,agradecimento,NULL,PennController,4,_Trial_,Start,1737119898679,NULL
1737119901,bdf066947686ab2cd01768f202816430,PennController,154,0,agradecimento,NULL,PennController,4,_Trial_,End,1737119900417,NULL
#
# Results on Sun, 19 Jan 2025 14:53:15 GMT
# USER AGENT: Mozilla/5.0 (Linux; Android 10; K) AppleWebKit/537.36 (KHTML, like Gecko) Chrome/131.0.0.0 Mobile Safari/537.36
# Design number was non-random = 1
#
# Columns below this comment are as follows:
# 1. Results reception time.
# 2. MD5 hash of participant's IP address.
# 3. Controller name.
# 4. Order number of item.
# 5. Inner element number.
# 6. Label.
# 7. Latin Square Group.
# 8. PennElementType.
# 9. PennElementName.
# 10. Parameter.
# 11. Value.
# 12. EventTime.
# 13. Comments.
1737298395,9d4072d71ac656dbc367bc6c6ef7381a,PennController,0,0,TCLE,NULL,PennController,0,_Trial_,Start,1737295568327,NULL
1737298395,9d4072d71ac656dbc367bc6c6ef7381a,PennController,0,0,TCLE,NULL,PennController,0,_Trial_,End,1737295572041,NULL
1737298395,9d4072d71ac656dbc367bc6c6ef7381a,PennController,3,0,instrucoes,NULL,PennController,3,_Trial_,Start,1737295572051,NULL
1737298395,9d4072d71ac656dbc367bc6c6ef7381a,PennController,3,0,instrucoes,NULL,PennController,3,_Trial_,End,1737295588447,NULL
1737298395,9d4072d71ac656dbc367bc6c6ef7381a,PennController,1,0,genero,NULL,PennController,1,_Trial_,Start,1737295588455,NULL
1737298395,9d4072d71ac656dbc367bc6c6ef7381a,PennController,1,0,genero,NULL,DropDown,selecionaGenero,Selected,Masculino,1737295591538,0
1737298395,9d4072d71ac656dbc367bc6c6ef7381a,PennController,1,0,genero,NULL,PennController,1,_Trial_,End,1737295593456,NULL
1737298395,9d4072d71ac656dbc367bc6c6ef7381a,PennController,4,0,frases,NULL,PennController,5,_Trial_,Start,1737295593465,NULL
1737298395,9d4072d71ac656dbc367bc6c6ef7381a,PennController,4,0,frases,NULL,Selector,classificacao,Selection,positiva,1737295604239,negativa;neutra;positiva
1737298395,9d4072d71ac656dbc367bc6c6ef7381a,PennController,4,0,frases,NULL,PennController,5,_Trial_,End,1737295604250,NULL
1737298395,9d4072d71ac656dbc367bc6c6ef7381a,PennController,5,0,frases,NULL,PennController,6,_Trial_,Start,1737295604256,NULL
1737298395,9d4072d71ac656dbc367bc6c6ef7381a,PennController,5,0,frases,NULL,Selector,classificacao,Selection,positiva,1737295609133,negativa;neutra;positiva
1737298395,9d4072d71ac656dbc367bc6c6ef7381a,PennController,5,0,frases,NULL,PennController,6,_Trial_,End,1737295609141,NULL
1737298395,9d4072d71ac656dbc367bc6c6ef7381a,PennController,6,0,frases,NULL,PennController,7,_Trial_,Start,1737295609147,NULL
1737298395,9d4072d71ac656dbc367bc6c6ef7381a,PennController,6,0,frases,NULL,Selector,classificacao,Selection,negativa,1737295613147,negativa;neutra;positiva
1737298395,9d4072d71ac656dbc367bc6c6ef7381a,PennController,6,0,frases,NULL,PennController,7,_Trial_,End,1737295613155,NULL
1737298395,9d4072d71ac656dbc367bc6c6ef7381a,PennController,7,0,frases,NULL,PennController,8,_Trial_,Start,1737295613160,NULL
1737298395,9d4072d71ac656dbc367bc6c6ef7381a,PennController,7,0,frases,NULL,Selector,classificacao,Selection,positiva,1737295619536,negativa;neutra;positiva
1737298395,9d4072d71ac656dbc367bc6c6ef7381a,PennController,7,0,frases,NULL,PennController,8,_Trial_,End,1737295619544,NULL
1737298395,9d4072d71ac656dbc367bc6c6ef7381a,PennController,8,0,frases,NULL,PennController,9,_Trial_,Start,1737295619548,NULL
1737298395,9d4072d71ac656dbc367bc6c6ef7381a,PennController,8,0,frases,NULL,Selector,classificacao,Selection,positiva,1737295629333,negativa;neutra;positiva
1737298395,9d4072d71ac656dbc367bc6c6ef7381a,PennController,8,0,frases,NULL,PennController,9,_Trial_,End,1737295629340,NULL
1737298395,9d4072d71ac656dbc367bc6c6ef7381a,PennController,9,0,frases,NULL,PennController,10,_Trial_,Start,1737295629346,NULL
1737298395,9d4072d71ac656dbc367bc6c6ef7381a,PennController,9,0,frases,NULL,Selector,classificacao,Selection,neutra,1737295644541,negativa;neutra;positiva
1737298395,9d4072d71ac656dbc367bc6c6ef7381a,PennController,9,0,frases,NULL,PennController,10,_Trial_,End,1737295644550,NULL
1737298395,9d4072d71ac656dbc367bc6c6ef7381a,PennController,10,0,frases,NULL,PennController,11,_Trial_,Start,1737295644555,NULL
1737298395,9d4072d71ac656dbc367bc6c6ef7381a,PennController,10,0,frases,NULL,Selector,classificacao,Selection,positiva,1737295647096,negativa;neutra;positiva
1737298395,9d4072d71ac656dbc367bc6c6ef7381a,PennController,10,0,frases,NULL,PennController,11,_Trial_,End,1737295647105,NULL
1737298395,9d4072d71ac656dbc367bc6c6ef7381a,PennController,11,0,frases,NULL,PennController,12,_Trial_,Start,1737295647111,NULL
1737298395,9d4072d71ac656dbc367bc6c6ef7381a,PennController,11,0,frases,NULL,Selector,classificacao,Selection,positiva,1737295650952,negativa;neutra;positiva
1737298395,9d4072d71ac656dbc367bc6c6ef7381a,PennController,11,0,frases,NULL,PennController,12,_Trial_,End,1737295650960,NULL
1737298395,9d4072d71ac656dbc367bc6c6ef7381a,PennController,12,0,frases,NULL,PennController,13,_Trial_,Start,1737295650967,NULL
1737298395,9d4072d71ac656dbc367bc6c6ef7381a,PennController,12,0,frases,NULL,Selector,classificacao,Selection,positiva,1737295671722,negativa;neutra;positiva
1737298395,9d4072d71ac656dbc367bc6c6ef7381a,PennController,12,0,frases,NULL,PennController,13,_Trial_,End,1737295671730,NULL
1737298395,9d4072d71ac656dbc367bc6c6ef7381a,PennController,13,0,frases,NULL,PennController,14,_Trial_,Start,1737295671735,NULL
1737298395,9d4072d71ac656dbc367bc6c6ef7381a,PennController,13,0,frases,NULL,Selector,classificacao,Selection,positiva,1737295674196,negativa;neutra;positiva
1737298395,9d4072d71ac656dbc367bc6c6ef7381a,PennController,13,0,frases,NULL,PennController,14,_Trial_,End,1737295674203,NULL
1737298395,9d4072d71ac656dbc367bc6c6ef7381a,PennController,14,0,frases,NULL,PennController,15,_Trial_,Start,1737295674208,NULL
1737298395,9d4072d71ac656dbc367bc6c6ef7381a,PennController,14,0,frases,NULL,Selector,classificacao,Selection,positiva,1737295676189,negativa;neutra;positiva
1737298395,9d4072d71ac656dbc367bc6c6ef7381a,PennController,14,0,frases,NULL,PennController,15,_Trial_,End,1737295676197,NULL
1737298395,9d4072d71ac656dbc367bc6c6ef7381a,PennController,15,0,frases,NULL,PennController,16,_Trial_,Start,1737295676203,NULL
1737298395,9d4072d71ac656dbc367bc6c6ef7381a,PennController,15,0,frases,NULL,Selector,classificacao,Selection,neutra,1737295733282,negativa;neutra;positiva
1737298395,9d4072d71ac656dbc367bc6c6ef7381a,PennController,15,0,frases,NULL,PennController,16,_Trial_,End,1737295733288,NULL
1737298395,9d4072d71ac656dbc367bc6c6ef7381a,PennController,16,0,frases,NULL,PennController,17,_Trial_,Start,1737295733293,NULL
1737298395,9d4072d71ac656dbc367bc6c6ef7381a,PennController,16,0,frases,NULL,Selector,classificacao,Selection,neutra,1737295744304,negativa;neutra;positiva
1737298395,9d4072d71ac656dbc367bc6c6ef7381a,PennController,16,0,frases,NULL,PennController,17,_Trial_,End,1737295744312,NULL
1737298395,9d4072d71ac656dbc367bc6c6ef7381a,PennController,17,0,frases,NULL,PennController,18,_Trial_,Start,1737295744316,NULL
1737298395,9d4072d71ac656dbc367bc6c6ef7381a,PennController,17,0,frases,NULL,Selector,classificacao,Selection,positiva,1737295753908,negativa;neutra;positiva
1737298395,9d4072d71ac656dbc367bc6c6ef7381a,PennController,17,0,frases,NULL,PennController,18,_Trial_,End,1737295753917,NULL
1737298395,9d4072d71ac656dbc367bc6c6ef7381a,PennController,18,0,frases,NULL,PennController,19,_Trial_,Start,1737295753923,NULL
1737298395,9d4072d71ac656dbc367bc6c6ef7381a,PennController,18,0,frases,NULL,Selector,classificacao,Selection,positiva,1737295760733,negativa;neutra;positiva
1737298395,9d4072d71ac656dbc367bc6c6ef7381a,PennController,18,0,frases,NULL,PennController,19,_Trial_,End,1737295760739,NULL
1737298395,9d4072d71ac656dbc367bc6c6ef7381a,PennController,19,0,frases,NULL,PennController,20,_Trial_,Start,1737295760743,NULL
1737298395,9d4072d71ac656dbc367bc6c6ef7381a,PennController,19,0,frases,NULL,Selector,classificacao,Selection,positiva,1737295907153,negativa;neutra;positiva
1737298395,9d4072d71ac656dbc367bc6c6ef7381a,PennController,19,0,frases,NULL,PennController,20,_Trial_,End,1737295907161,NULL
1737298395,9d4072d71ac656dbc367bc6c6ef7381a,PennController,20,0,frases,NULL,PennController,21,_Trial_,Start,1737295907167,NULL
1737298395,9d4072d71ac656dbc367bc6c6ef7381a,PennController,20,0,frases,NULL,Selector,classificacao,Selection,positiva,1737295914009,negativa;neutra;positiva
1737298395,9d4072d71ac656dbc367bc6c6ef7381a,PennController,20,0,frases,NULL,PennController,21,_Trial_,End,1737295914016,NULL
1737298395,9d4072d71ac656dbc367bc6c6ef7381a,PennController,21,0,frases,NULL,PennController,22,_Trial_,Start,1737295914021,NULL
1737298395,9d4072d71ac656dbc367bc6c6ef7381a,PennController,21,0,frases,NULL,Selector,classificacao,Selection,neutra,1737295919707,negativa;neutra;positiva
1737298395,9d4072d71ac656dbc367bc6c6ef7381a,PennController,21,0,frases,NULL,PennController,22,_Trial_,End,1737295919714,NULL
1737298395,9d4072d71ac656dbc367bc6c6ef7381a,PennController,22,0,frases,NULL,PennController,23,_Trial_,Start,1737295919718,NULL
1737298395,9d4072d71ac656dbc367bc6c6ef7381a,PennController,22,0,frases,NULL,Selector,classificacao,Selection,positiva,1737295925908,negativa;neutra;positiva
1737298395,9d4072d71ac656dbc367bc6c6ef7381a,PennController,22,0,frases,NULL,PennController,23,_Trial_,End,1737295925915,NULL
1737298395,9d4072d71ac656dbc367bc6c6ef7381a,PennController,23,0,frases,NULL,PennController,24,_Trial_,Start,1737295925921,NULL
1737298395,9d4072d71ac656dbc367bc6c6ef7381a,PennController,23,0,frases,NULL,Selector,classificacao,Selection,negativa,1737295934435,negativa;neutra;positiva
1737298395,9d4072d71ac656dbc367bc6c6ef7381a,PennController,23,0,frases,NULL,PennController,24,_Trial_,End,1737295934444,NULL
1737298395,9d4072d71ac656dbc367bc6c6ef7381a,PennController,24,0,frases,NULL,PennController,25,_Trial_,Start,1737295934450,NULL
1737298395,9d4072d71ac656dbc367bc6c6ef7381a,PennController,24,0,frases,NULL,Selector,classificacao,Selection,positiva,1737296046868,negativa;neutra;positiva
1737298395,9d4072d71ac656dbc367bc6c6ef7381a,PennController,24,0,frases,NULL,PennController,25,_Trial_,End,1737296046878,NULL
1737298395,9d4072d71ac656dbc367bc6c6ef7381a,PennController,25,0,frases,NULL,PennController,26,_Trial_,Start,1737296046883,NULL
1737298395,9d4072d71ac656dbc367bc6c6ef7381a,PennController,25,0,frases,NULL,Selector,classificacao,Selection,positiva,1737296051683,negativa;neutra;positiva
1737298395,9d4072d71ac656dbc367bc6c6ef7381a,PennController,25,0,frases,NULL,PennController,26,_Trial_,End,1737296051691,NULL
1737298395,9d4072d71ac656dbc367bc6c6ef7381a,PennController,26,0,frases,NULL,PennController,27,_Trial_,Start,1737296051697,NULL
1737298395,9d4072d71ac656dbc367bc6c6ef7381a,PennController,26,0,frases,NULL,Selector,classificacao,Selection,positiva,1737296054304,negativa;neutra;positiva
1737298395,9d4072d71ac656dbc367bc6c6ef7381a,PennController,26,0,frases,NULL,PennController,27,_Trial_,End,1737296054312,NULL
1737298395,9d4072d71ac656dbc367bc6c6ef7381a,PennController,27,0,frases,NULL,PennController,28,_Trial_,Start,1737296054317,NULL
1737298395,9d4072d71ac656dbc367bc6c6ef7381a,PennController,27,0,frases,NULL,Selector,classificacao,Selection,positiva,1737296056778,negativa;neutra;positiva
1737298395,9d4072d71ac656dbc367bc6c6ef7381a,PennController,27,0,frases,NULL,PennController,28,_Trial_,End,1737296056786,NULL
1737298395,9d4072d71ac656dbc367bc6c6ef7381a,PennController,28,0,frases,NULL,PennController,29,_Trial_,Start,1737296056790,NULL
1737298395,9d4072d71ac656dbc367bc6c6ef7381a,PennController,28,0,frases,NULL,Selector,classificacao,Selection,positiva,1737296065262,negativa;neutra;positiva
1737298395,9d4072d71ac656dbc367bc6c6ef7381a,PennController,28,0,frases,NULL,PennController,29,_Trial_,End,1737296065270,NULL
1737298395,9d4072d71ac656dbc367bc6c6ef7381a,PennController,29,0,frases,NULL,PennController,30,_Trial_,Start,1737296065277,NULL
1737298395,9d4072d71ac656dbc367bc6c6ef7381a,PennController,29,0,frases,NULL,Selector,classificacao,Selection,neutra,1737296273728,negativa;neutra;positiva
1737298395,9d4072d71ac656dbc367bc6c6ef7381a,PennController,29,0,frases,NULL,PennController,30,_Trial_,End,1737296273736,NULL
1737298395,9d4072d71ac656dbc367bc6c6ef7381a,PennController,30,0,frases,NULL,PennController,31,_Trial_,Start,1737296273744,NULL
1737298395,9d4072d71ac656dbc367bc6c6ef7381a,PennController,30,0,frases,NULL,Selector,classificacao,Selection,neutra,1737296278774,negativa;neutra;positiva
1737298395,9d4072d71ac656dbc367bc6c6ef7381a,PennController,30,0,frases,NULL,PennController,31,_Trial_,End,1737296278782,NULL
1737298395,9d4072d71ac656dbc367bc6c6ef7381a,PennController,31,0,frases,NULL,PennController,32,_Trial_,Start,1737296278787,NULL
1737298395,9d4072d71ac656dbc367bc6c6ef7381a,PennController,31,0,frases,NULL,Selector,classificacao,Selection,neutra,1737296410730,negativa;neutra;positiva
1737298395,9d4072d71ac656dbc367bc6c6ef7381a,PennController,31,0,frases,NULL,PennController,32,_Trial_,End,1737296410737,NULL
1737298395,9d4072d71ac656dbc367bc6c6ef7381a,PennController,32,0,frases,NULL,PennController,33,_Trial_,Start,1737296410742,NULL
1737298395,9d4072d71ac656dbc367bc6c6ef7381a,PennController,32,0,frases,NULL,Selector,classificacao,Selection,neutra,1737296417256,negativa;neutra;positiva
1737298395,9d4072d71ac656dbc367bc6c6ef7381a,PennController,32,0,frases,NULL,PennController,33,_Trial_,End,1737296417264,NULL
1737298395,9d4072d71ac656dbc367bc6c6ef7381a,PennController,33,0,frases,NULL,PennController,34,_Trial_,Start,1737296417268,NULL
1737298395,9d4072d71ac656dbc367bc6c6ef7381a,PennController,33,0,frases,NULL,Selector,classificacao,Selection,positiva,1737296426141,negativa;neutra;positiva
1737298395,9d4072d71ac656dbc367bc6c6ef7381a,PennController,33,0,frases,NULL,PennController,34,_Trial_,End,1737296426149,NULL
1737298395,9d4072d71ac656dbc367bc6c6ef7381a,PennController,34,0,frases,NULL,PennController,35,_Trial_,Start,1737296426154,NULL
1737298395,9d4072d71ac656dbc367bc6c6ef7381a,PennController,34,0,frases,NULL,Selector,classificacao,Selection,positiva,1737296432069,negativa;neutra;positiva
1737298395,9d4072d71ac656dbc367bc6c6ef7381a,PennController,34,0,frases,NULL,PennController,35,_Trial_,End,1737296432077,NULL
1737298395,9d4072d71ac656dbc367bc6c6ef7381a,PennController,35,0,frases,NULL,PennController,36,_Trial_,Start,1737296432082,NULL
1737298395,9d4072d71ac656dbc367bc6c6ef7381a,PennController,35,0,frases,NULL,Selector,classificacao,Selection,positiva,1737296439601,negativa;neutra;positiva
1737298395,9d4072d71ac656dbc367bc6c6ef7381a,PennController,35,0,frases,NULL,PennController,36,_Trial_,End,1737296439608,NULL
1737298395,9d4072d71ac656dbc367bc6c6ef7381a,PennController,36,0,frases,NULL,PennController,37,_Trial_,Start,1737296439613,NULL
1737298395,9d4072d71ac656dbc367bc6c6ef7381a,PennController,36,0,frases,NULL,Selector,classificacao,Selection,positiva,1737296621538,negativa;neutra;positiva
1737298395,9d4072d71ac656dbc367bc6c6ef7381a,PennController,36,0,frases,NULL,PennController,37,_Trial_,End,1737296621545,NULL
1737298395,9d4072d71ac656dbc367bc6c6ef7381a,PennController,37,0,frases,NULL,PennController,38,_Trial_,Start,1737296621551,NULL
1737298395,9d4072d71ac656dbc367bc6c6ef7381a,PennController,37,0,frases,NULL,Selector,classificacao,Selection,positiva,1737296622869,negativa;neutra;positiva
1737298395,9d4072d71ac656dbc367bc6c6ef7381a,PennController,37,0,frases,NULL,PennController,38,_Trial_,End,1737296622873,NULL
1737298395,9d4072d71ac656dbc367bc6c6ef7381a,PennController,38,0,frases,NULL,PennController,39,_Trial_,Start,1737296622877,NULL
1737298395,9d4072d71ac656dbc367bc6c6ef7381a,PennController,38,0,frases,NULL,Selector,classificacao,Selection,neutra,1737296627342,negativa;neutra;positiva
1737298395,9d4072d71ac656dbc367bc6c6ef7381a,PennController,38,0,frases,NULL,PennController,39,_Trial_,End,1737296627349,NULL
1737298395,9d4072d71ac656dbc367bc6c6ef7381a,PennController,39,0,frases,NULL,PennController,40,_Trial_,Start,1737296627353,NULL
1737298395,9d4072d71ac656dbc367bc6c6ef7381a,PennController,39,0,frases,NULL,Selector,classificacao,Selection,positiva,1737296635444,negativa;neutra;positiva
1737298395,9d4072d71ac656dbc367bc6c6ef7381a,PennController,39,0,frases,NULL,PennController,40,_Trial_,End,1737296635452,NULL
1737298395,9d4072d71ac656dbc367bc6c6ef7381a,PennController,40,0,frases,NULL,PennController,41,_Trial_,Start,1737296635458,NULL
1737298395,9d4072d71ac656dbc367bc6c6ef7381a,PennController,40,0,frases,NULL,Selector,classificacao,Selection,neutra,1737296641794,negativa;neutra;positiva
1737298395,9d4072d71ac656dbc367bc6c6ef7381a,PennController,40,0,frases,NULL,PennController,41,_Trial_,End,1737296641802,NULL
1737298395,9d4072d71ac656dbc367bc6c6ef7381a,PennController,41,0,frases,NULL,PennController,42,_Trial_,Start,1737296641807,NULL
1737298395,9d4072d71ac656dbc367bc6c6ef7381a,PennController,41,0,frases,NULL,Selector,classificacao,Selection,positiva,1737296647070,negativa;neutra;positiva
1737298395,9d4072d71ac656dbc367bc6c6ef7381a,PennController,41,0,frases,NULL,PennController,42,_Trial_,End,1737296647078,NULL
1737298395,9d4072d71ac656dbc367bc6c6ef7381a,PennController,42,0,frases,NULL,PennController,43,_Trial_,Start,1737296647084,NULL
1737298395,9d4072d71ac656dbc367bc6c6ef7381a,PennController,42,0,frases,NULL,Selector,classificacao,Selection,positiva,1737296648900,negativa;neutra;positiva
1737298395,9d4072d71ac656dbc367bc6c6ef7381a,PennController,42,0,frases,NULL,PennController,43,_Trial_,End,1737296648906,NULL
1737298395,9d4072d71ac656dbc367bc6c6ef7381a,PennController,43,0,frases,NULL,PennController,44,_Trial_,Start,1737296648910,NULL
1737298395,9d4072d71ac656dbc367bc6c6ef7381a,PennController,43,0,frases,NULL,Selector,classificacao,Selection,positiva,1737296651393,negativa;neutra;positiva
1737298395,9d4072d71ac656dbc367bc6c6ef7381a,PennController,43,0,frases,NULL,PennController,44,_Trial_,End,1737296651400,NULL
1737298395,9d4072d71ac656dbc367bc6c6ef7381a,PennController,44,0,frases,NULL,PennController,45,_Trial_,Start,1737296651405,NULL
1737298395,9d4072d71ac656dbc367bc6c6ef7381a,PennController,44,0,frases,NULL,Selector,classificacao,Selection,neutra,1737296662592,negativa;neutra;positiva
1737298395,9d4072d71ac656dbc367bc6c6ef7381a,PennController,44,0,frases,NULL,PennController,45,_Trial_,End,1737296662600,NULL
1737298395,9d4072d71ac656dbc367bc6c6ef7381a,PennController,45,0,frases,NULL,PennController,46,_Trial_,Start,1737296662604,NULL
1737298395,9d4072d71ac656dbc367bc6c6ef7381a,PennController,45,0,frases,NULL,Selector,classificacao,Selection,neutra,1737296665383,negativa;neutra;positiva
1737298395,9d4072d71ac656dbc367bc6c6ef7381a,PennController,45,0,frases,NULL,PennController,46,_Trial_,End,1737296665391,NULL
1737298395,9d4072d71ac656dbc367bc6c6ef7381a,PennController,46,0,frases,NULL,PennController,47,_Trial_,Start,1737296665396,NULL
1737298395,9d4072d71ac656dbc367bc6c6ef7381a,PennController,46,0,frases,NULL,Selector,classificacao,Selection,positiva,1737296668284,negativa;neutra;positiva
1737298395,9d4072d71ac656dbc367bc6c6ef7381a,PennController,46,0,frases,NULL,PennController,47,_Trial_,End,1737296668291,NULL
1737298395,9d4072d71ac656dbc367bc6c6ef7381a,PennController,47,0,frases,NULL,PennController,48,_Trial_,Start,1737296668296,NULL
1737298395,9d4072d71ac656dbc367bc6c6ef7381a,PennController,47,0,frases,NULL,Selector,classificacao,Selection,positiva,1737296670033,negativa;neutra;positiva
1737298395,9d4072d71ac656dbc367bc6c6ef7381a,PennController,47,0,frases,NULL,PennController,48,_Trial_,End,1737296670039,NULL
1737298395,9d4072d71ac656dbc367bc6c6ef7381a,PennController,48,0,frases,NULL,PennController,49,_Trial_,Start,1737296670043,NULL
1737298395,9d4072d71ac656dbc367bc6c6ef7381a,PennController,48,0,frases,NULL,Selector,classificacao,Selection,positiva,1737296919760,negativa;neutra;positiva
1737298395,9d4072d71ac656dbc367bc6c6ef7381a,PennController,48,0,frases,NULL,PennController,49,_Trial_,End,1737296919767,NULL
1737298395,9d4072d71ac656dbc367bc6c6ef7381a,PennController,49,0,frases,NULL,PennController,50,_Trial_,Start,1737296919772,NULL
1737298395,9d4072d71ac656dbc367bc6c6ef7381a,PennController,49,0,frases,NULL,Selector,classificacao,Selection,positiva,1737296938256,negativa;neutra;positiva
1737298395,9d4072d71ac656dbc367bc6c6ef7381a,PennController,49,0,frases,NULL,PennController,50,_Trial_,End,1737296938264,NULL
1737298395,9d4072d71ac656dbc367bc6c6ef7381a,PennController,50,0,frases,NULL,PennController,51,_Trial_,Start,1737296938269,NULL
1737298395,9d4072d71ac656dbc367bc6c6ef7381a,PennController,50,0,frases,NULL,Selector,classificacao,Selection,positiva,1737296940104,negativa;neutra;positiva
1737298395,9d4072d71ac656dbc367bc6c6ef7381a,PennController,50,0,frases,NULL,PennController,51,_Trial_,End,1737296940110,NULL
1737298395,9d4072d71ac656dbc367bc6c6ef7381a,PennController,51,0,frases,NULL,PennController,52,_Trial_,Start,1737296940114,NULL
1737298395,9d4072d71ac656dbc367bc6c6ef7381a,PennController,51,0,frases,NULL,Selector,classificacao,Selection,positiva,1737296941373,negativa;neutra;positiva
1737298395,9d4072d71ac656dbc367bc6c6ef7381a,PennController,51,0,frases,NULL,PennController,52,_Trial_,End,1737296941380,NULL
1737298395,9d4072d71ac656dbc367bc6c6ef7381a,PennController,52,0,frases,NULL,PennController,53,_Trial_,Start,1737296941385,NULL
1737298395,9d4072d71ac656dbc367bc6c6ef7381a,PennController,52,0,frases,NULL,Selector,classificacao,Selection,positiva,1737296944293,negativa;neutra;positiva
1737298395,9d4072d71ac656dbc367bc6c6ef7381a,PennController,52,0,frases,NULL,PennController,53,_Trial_,End,1737296944300,NULL
1737298395,9d4072d71ac656dbc367bc6c6ef7381a,PennController,53,0,frases,NULL,PennController,54,_Trial_,Start,1737296944305,NULL
1737298395,9d4072d71ac656dbc367bc6c6ef7381a,PennController,53,0,frases,NULL,Selector,classificacao,Selection,negativa,1737297259129,negativa;neutra;positiva
1737298395,9d4072d71ac656dbc367bc6c6ef7381a,PennController,53,0,frases,NULL,PennController,54,_Trial_,End,1737297259137,NULL
1737298395,9d4072d71ac656dbc367bc6c6ef7381a,PennController,54,0,frases,NULL,PennController,55,_Trial_,Start,1737297259143,NULL
1737298395,9d4072d71ac656dbc367bc6c6ef7381a,PennController,54,0,frases,NULL,Selector,classificacao,Selection,positiva,1737297264253,negativa;neutra;positiva
1737298395,9d4072d71ac656dbc367bc6c6ef7381a,PennController,54,0,frases,NULL,PennController,55,_Trial_,End,1737297264260,NULL
1737298395,9d4072d71ac656dbc367bc6c6ef7381a,PennController,55,0,frases,NULL,PennController,56,_Trial_,Start,1737297264266,NULL
1737298395,9d4072d71ac656dbc367bc6c6ef7381a,PennController,55,0,frases,NULL,Selector,classificacao,Selection,positiva,1737297272458,negativa;neutra;positiva
1737298395,9d4072d71ac656dbc367bc6c6ef7381a,PennController,55,0,frases,NULL,PennController,56,_Trial_,End,1737297272462,NULL
1737298395,9d4072d71ac656dbc367bc6c6ef7381a,PennController,56,0,frases,NULL,PennController,57,_Trial_,Start,1737297272467,NULL
1737298395,9d4072d71ac656dbc367bc6c6ef7381a,PennController,56,0,frases,NULL,Selector,classificacao,Selection,positiva,1737297297901,negativa;neutra;positiva
1737298395,9d4072d71ac656dbc367bc6c6ef7381a,PennController,56,0,frases,NULL,PennController,57,_Trial_,End,1737297297908,NULL
1737298395,9d4072d71ac656dbc367bc6c6ef7381a,PennController,57,0,frases,NULL,PennController,58,_Trial_,Start,1737297297913,NULL
1737298395,9d4072d71ac656dbc367bc6c6ef7381a,PennController,57,0,frases,NULL,Selector,classificacao,Selection,negativa,1737297310064,negativa;neutra;positiva
1737298395,9d4072d71ac656dbc367bc6c6ef7381a,PennController,57,0,frases,NULL,PennController,58,_Trial_,End,1737297310071,NULL
1737298395,9d4072d71ac656dbc367bc6c6ef7381a,PennController,58,0,frases,NULL,PennController,59,_Trial_,Start,1737297310075,NULL
1737298395,9d4072d71ac656dbc367bc6c6ef7381a,PennController,58,0,frases,NULL,Selector,classificacao,Selection,positiva,1737297315611,negativa;neutra;positiva
1737298395,9d4072d71ac656dbc367bc6c6ef7381a,PennController,58,0,frases,NULL,PennController,59,_Trial_,End,1737297315619,NULL
1737298395,9d4072d71ac656dbc367bc6c6ef7381a,PennController,59,0,frases,NULL,PennController,60,_Trial_,Start,1737297315625,NULL
1737298395,9d4072d71ac656dbc367bc6c6ef7381a,PennController,59,0,frases,NULL,Selector,classificacao,Selection,neutra,1737297367452,negativa;neutra;positiva
1737298395,9d4072d71ac656dbc367bc6c6ef7381a,PennController,59,0,frases,NULL,PennController,60,_Trial_,End,1737297367461,NULL
1737298395,9d4072d71ac656dbc367bc6c6ef7381a,PennController,60,0,frases,NULL,PennController,61,_Trial_,Start,1737297367465,NULL
1737298395,9d4072d71ac656dbc367bc6c6ef7381a,PennController,60,0,frases,NULL,Selector,classificacao,Selection,negativa,1737297391153,negativa;neutra;positiva
1737298395,9d4072d71ac656dbc367bc6c6ef7381a,PennController,60,0,frases,NULL,PennController,61,_Trial_,End,1737297391161,NULL
1737298395,9d4072d71ac656dbc367bc6c6ef7381a,PennController,61,0,frases,NULL,PennController,62,_Trial_,Start,1737297391165,NULL
1737298395,9d4072d71ac656dbc367bc6c6ef7381a,PennController,61,0,frases,NULL,Selector,classificacao,Selection,positiva,1737297394815,negativa;neutra;positiva
1737298395,9d4072d71ac656dbc367bc6c6ef7381a,PennController,61,0,frases,NULL,PennController,62,_Trial_,End,1737297394822,NULL
1737298395,9d4072d71ac656dbc367bc6c6ef7381a,PennController,62,0,frases,NULL,PennController,63,_Trial_,Start,1737297394827,NULL
1737298395,9d4072d71ac656dbc367bc6c6ef7381a,PennController,62,0,frases,NULL,Selector,classificacao,Selection,neutra,1737297470873,negativa;neutra;positiva
1737298395,9d4072d71ac656dbc367bc6c6ef7381a,PennController,62,0,frases,NULL,PennController,63,_Trial_,End,1737297470881,NULL
1737298395,9d4072d71ac656dbc367bc6c6ef7381a,PennController,63,0,frases,NULL,PennController,64,_Trial_,Start,1737297470887,NULL
1737298395,9d4072d71ac656dbc367bc6c6ef7381a,PennController,63,0,frases,NULL,Selector,classificacao,Selection,positiva,1737297473868,negativa;neutra;positiva
1737298395,9d4072d71ac656dbc367bc6c6ef7381a,PennController,63,0,frases,NULL,PennController,64,_Trial_,End,1737297473876,NULL
1737298395,9d4072d71ac656dbc367bc6c6ef7381a,PennController,64,0,frases,NULL,PennController,65,_Trial_,Start,1737297473880,NULL
1737298395,9d4072d71ac656dbc367bc6c6ef7381a,PennController,64,0,frases,NULL,Selector,classificacao,Selection,positiva,1737297476303,negativa;neutra;positiva
1737298395,9d4072d71ac656dbc367bc6c6ef7381a,PennController,64,0,frases,NULL,PennController,65,_Trial_,End,1737297476310,NULL
1737298395,9d4072d71ac656dbc367bc6c6ef7381a,PennController,65,0,frases,NULL,PennController,66,_Trial_,Start,1737297476314,NULL
1737298395,9d4072d71ac656dbc367bc6c6ef7381a,PennController,65,0,frases,NULL,Selector,classificacao,Selection,negativa,1737297482906,negativa;neutra;positiva
1737298395,9d4072d71ac656dbc367bc6c6ef7381a,PennController,65,0,frases,NULL,PennController,66,_Trial_,End,1737297482914,NULL
1737298395,9d4072d71ac656dbc367bc6c6ef7381a,PennController,66,0,frases,NULL,PennController,67,_Trial_,Start,1737297482919,NULL
1737298395,9d4072d71ac656dbc367bc6c6ef7381a,PennController,66,0,frases,NULL,Selector,classificacao,Selection,negativa,1737297486367,negativa;neutra;positiva
1737298395,9d4072d71ac656dbc367bc6c6ef7381a,PennController,66,0,frases,NULL,PennController,67,_Trial_,End,1737297486373,NULL
1737298395,9d4072d71ac656dbc367bc6c6ef7381a,PennController,67,0,frases,NULL,PennController,68,_Trial_,Start,1737297486378,NULL
1737298395,9d4072d71ac656dbc367bc6c6ef7381a,PennController,67,0,frases,NULL,Selector,classificacao,Selection,negativa,1737297490377,negativa;neutra;positiva
1737298395,9d4072d71ac656dbc367bc6c6ef7381a,PennController,67,0,frases,NULL,PennController,68,_Trial_,End,1737297490384,NULL
1737298395,9d4072d71ac656dbc367bc6c6ef7381a,PennController,68,0,frases,NULL,PennController,69,_Trial_,Start,1737297490389,NULL
1737298395,9d4072d71ac656dbc367bc6c6ef7381a,PennController,68,0,frases,NULL,Selector,classificacao,Selection,positiva,1737297495160,negativa;neutra;positiva
1737298395,9d4072d71ac656dbc367bc6c6ef7381a,PennController,68,0,frases,NULL,PennController,69,_Trial_,End,1737297495167,NULL
1737298395,9d4072d71ac656dbc367bc6c6ef7381a,PennController,69,0,frases,NULL,PennController,70,_Trial_,Start,1737297495171,NULL
1737298395,9d4072d71ac656dbc367bc6c6ef7381a,PennController,69,0,frases,NULL,Selector,classificacao,Selection,neutra,1737297497696,negativa;neutra;positiva
1737298395,9d4072d71ac656dbc367bc6c6ef7381a,PennController,69,0,frases,NULL,PennController,70,_Trial_,End,1737297497704,NULL
1737298395,9d4072d71ac656dbc367bc6c6ef7381a,PennController,70,0,frases,NULL,PennController,71,_Trial_,Start,1737297497710,NULL
1737298395,9d4072d71ac656dbc367bc6c6ef7381a,PennController,70,0,frases,NULL,Selector,classificacao,Selection,positiva,1737297501286,negativa;neutra;positiva
1737298395,9d4072d71ac656dbc367bc6c6ef7381a,PennController,70,0,frases,NULL,PennController,71,_Trial_,End,1737297501291,NULL
1737298395,9d4072d71ac656dbc367bc6c6ef7381a,PennController,71,0,frases,NULL,PennController,72,_Trial_,Start,1737297501294,NULL
1737298395,9d4072d71ac656dbc367bc6c6ef7381a,PennController,71,0,frases,NULL,Selector,classificacao,Selection,positiva,1737297513786,negativa;neutra;positiva
1737298395,9d4072d71ac656dbc367bc6c6ef7381a,PennController,71,0,frases,NULL,PennController,72,_Trial_,End,1737297513793,NULL
1737298395,9d4072d71ac656dbc367bc6c6ef7381a,PennController,72,0,frases,NULL,PennController,73,_Trial_,Start,1737297513798,NULL
1737298395,9d4072d71ac656dbc367bc6c6ef7381a,PennController,72,0,frases,NULL,Selector,classificacao,Selection,positiva,1737297523421,negativa;neutra;positiva
1737298395,9d4072d71ac656dbc367bc6c6ef7381a,PennController,72,0,frases,NULL,PennController,73,_Trial_,End,1737297523430,NULL
1737298395,9d4072d71ac656dbc367bc6c6ef7381a,PennController,73,0,frases,NULL,PennController,74,_Trial_,Start,1737297523435,NULL
1737298395,9d4072d71ac656dbc367bc6c6ef7381a,PennController,73,0,frases,NULL,Selector,classificacao,Selection,positiva,1737297529713,negativa;neutra;positiva
1737298395,9d4072d71ac656dbc367bc6c6ef7381a,PennController,73,0,frases,NULL,PennController,74,_Trial_,End,1737297529720,NULL
1737298395,9d4072d71ac656dbc367bc6c6ef7381a,PennController,74,0,frases,NULL,PennController,75,_Trial_,Start,1737297529725,NULL
1737298395,9d4072d71ac656dbc367bc6c6ef7381a,PennController,74,0,frases,NULL,Selector,classificacao,Selection,positiva,1737297532846,negativa;neutra;positiva
1737298395,9d4072d71ac656dbc367bc6c6ef7381a,PennController,74,0,frases,NULL,PennController,75,_Trial_,End,1737297532854,NULL
1737298395,9d4072d71ac656dbc367bc6c6ef7381a,PennController,75,0,frases,NULL,PennController,76,_Trial_,Start,1737297532859,NULL
1737298395,9d4072d71ac656dbc367bc6c6ef7381a,PennController,75,0,frases,NULL,Selector,classificacao,Selection,neutra,1737297548544,negativa;neutra;positiva
1737298395,9d4072d71ac656dbc367bc6c6ef7381a,PennController,75,0,frases,NULL,PennController,76,_Trial_,End,1737297548551,NULL
1737298395,9d4072d71ac656dbc367bc6c6ef7381a,PennController,76,0,frases,NULL,PennController,77,_Trial_,Start,1737297548556,NULL
1737298395,9d4072d71ac656dbc367bc6c6ef7381a,PennController,76,0,frases,NULL,Selector,classificacao,Selection,positiva,1737297550696,negativa;neutra;positiva
1737298395,9d4072d71ac656dbc367bc6c6ef7381a,PennController,76,0,frases,NULL,PennController,77,_Trial_,End,1737297550704,NULL
1737298395,9d4072d71ac656dbc367bc6c6ef7381a,PennController,77,0,frases,NULL,PennController,78,_Trial_,Start,1737297550710,NULL
1737298395,9d4072d71ac656dbc367bc6c6ef7381a,PennController,77,0,frases,NULL,Selector,classificacao,Selection,neutra,1737297553918,negativa;neutra;positiva
1737298395,9d4072d71ac656dbc367bc6c6ef7381a,PennController,77,0,frases,NULL,PennController,78,_Trial_,End,1737297553926,NULL
1737298395,9d4072d71ac656dbc367bc6c6ef7381a,PennController,78,0,frases,NULL,PennController,79,_Trial_,Start,1737297553931,NULL
1737298395,9d4072d71ac656dbc367bc6c6ef7381a,PennController,78,0,frases,NULL,Selector,classificacao,Selection,positiva,1737297555979,negativa;neutra;positiva
1737298395,9d4072d71ac656dbc367bc6c6ef7381a,PennController,78,0,frases,NULL,PennController,79,_Trial_,End,1737297555987,NULL
1737298395,9d4072d71ac656dbc367bc6c6ef7381a,PennController,79,0,frases,NULL,PennController,80,_Trial_,Start,1737297555993,NULL
1737298395,9d4072d71ac656dbc367bc6c6ef7381a,PennController,79,0,frases,NULL,Selector,classificacao,Selection,neutra,1737297562516,negativa;neutra;positiva
1737298395,9d4072d71ac656dbc367bc6c6ef7381a,PennController,79,0,frases,NULL,PennController,80,_Trial_,End,1737297562524,NULL
1737298395,9d4072d71ac656dbc367bc6c6ef7381a,PennController,80,0,frases,NULL,PennController,81,_Trial_,Start,1737297562530,NULL
1737298395,9d4072d71ac656dbc367bc6c6ef7381a,PennController,80,0,frases,NULL,Selector,classificacao,Selection,positiva,1737297568257,negativa;neutra;positiva
1737298395,9d4072d71ac656dbc367bc6c6ef7381a,PennController,80,0,frases,NULL,PennController,81,_Trial_,End,1737297568265,NULL
1737298395,9d4072d71ac656dbc367bc6c6ef7381a,PennController,81,0,frases,NULL,PennController,82,_Trial_,Start,1737297568270,NULL
1737298395,9d4072d71ac656dbc367bc6c6ef7381a,PennController,81,0,frases,NULL,Selector,classificacao,Selection,negativa,1737297571466,negativa;neutra;positiva
1737298395,9d4072d71ac656dbc367bc6c6ef7381a,PennController,81,0,frases,NULL,PennController,82,_Trial_,End,1737297571474,NULL
1737298395,9d4072d71ac656dbc367bc6c6ef7381a,PennController,82,0,frases,NULL,PennController,83,_Trial_,Start,1737297571479,NULL
1737298395,9d4072d71ac656dbc367bc6c6ef7381a,PennController,82,0,frases,NULL,Selector,classificacao,Selection,positiva,1737297576404,negativa;neutra;positiva
1737298395,9d4072d71ac656dbc367bc6c6ef7381a,PennController,82,0,frases,NULL,PennController,83,_Trial_,End,1737297576411,NULL
1737298395,9d4072d71ac656dbc367bc6c6ef7381a,PennController,83,0,frases,NULL,PennController,84,_Trial_,Start,1737297576415,NULL
1737298395,9d4072d71ac656dbc367bc6c6ef7381a,PennController,83,0,frases,NULL,Selector,classificacao,Selection,positiva,1737297580249,negativa;neutra;positiva
1737298395,9d4072d71ac656dbc367bc6c6ef7381a,PennController,83,0,frases,NULL,PennController,84,_Trial_,End,1737297580257,NULL
1737298395,9d4072d71ac656dbc367bc6c6ef7381a,PennController,84,0,frases,NULL,PennController,85,_Trial_,Start,1737297580261,NULL
1737298395,9d4072d71ac656dbc367bc6c6ef7381a,PennController,84,0,frases,NULL,Selector,classificacao,Selection,positiva,1737297582538,negativa;neutra;positiva
1737298395,9d4072d71ac656dbc367bc6c6ef7381a,PennController,84,0,frases,NULL,PennController,85,_Trial_,End,1737297582545,NULL
1737298395,9d4072d71ac656dbc367bc6c6ef7381a,PennController,85,0,frases,NULL,PennController,86,_Trial_,Start,1737297582550,NULL
1737298395,9d4072d71ac656dbc367bc6c6ef7381a,PennController,85,0,frases,NULL,Selector,classificacao,Selection,neutra,1737297597845,negativa;neutra;positiva
1737298395,9d4072d71ac656dbc367bc6c6ef7381a,PennController,85,0,frases,NULL,PennController,86,_Trial_,End,1737297597852,NULL
1737298395,9d4072d71ac656dbc367bc6c6ef7381a,PennController,86,0,frases,NULL,PennController,87,_Trial_,Start,1737297597857,NULL
1737298395,9d4072d71ac656dbc367bc6c6ef7381a,PennController,86,0,frases,NULL,Selector,classificacao,Selection,positiva,1737297632026,negativa;neutra;positiva
1737298395,9d4072d71ac656dbc367bc6c6ef7381a,PennController,86,0,frases,NULL,PennController,87,_Trial_,End,1737297632034,NULL
1737298395,9d4072d71ac656dbc367bc6c6ef7381a,PennController,87,0,frases,NULL,PennController,88,_Trial_,Start,1737297632039,NULL
1737298395,9d4072d71ac656dbc367bc6c6ef7381a,PennController,87,0,frases,NULL,Selector,classificacao,Selection,positiva,1737297636391,negativa;neutra;positiva
1737298395,9d4072d71ac656dbc367bc6c6ef7381a,PennController,87,0,frases,NULL,PennController,88,_Trial_,End,1737297636398,NULL
1737298395,9d4072d71ac656dbc367bc6c6ef7381a,PennController,88,0,frases,NULL,PennController,89,_Trial_,Start,1737297636402,NULL
1737298395,9d4072d71ac656dbc367bc6c6ef7381a,PennController,88,0,frases,NULL,Selector,classificacao,Selection,positiva,1737297684823,negativa;neutra;positiva
1737298395,9d4072d71ac656dbc367bc6c6ef7381a,PennController,88,0,frases,NULL,PennController,89,_Trial_,End,1737297684831,NULL
1737298395,9d4072d71ac656dbc367bc6c6ef7381a,PennController,89,0,frases,NULL,PennController,90,_Trial_,Start,1737297684835,NULL
1737298395,9d4072d71ac656dbc367bc6c6ef7381a,PennController,89,0,frases,NULL,Selector,classificacao,Selection,positiva,1737297686473,negativa;neutra;positiva
1737298395,9d4072d71ac656dbc367bc6c6ef7381a,PennController,89,0,frases,NULL,PennController,90,_Trial_,End,1737297686480,NULL
1737298395,9d4072d71ac656dbc367bc6c6ef7381a,PennController,90,0,frases,NULL,PennController,91,_Trial_,Start,1737297686484,NULL
1737298395,9d4072d71ac656dbc367bc6c6ef7381a,PennController,90,0,frases,NULL,Selector,classificacao,Selection,positiva,1737297689382,negativa;neutra;positiva
