#
# Results on Wed, 22 Jan 2025 13:21:54 GMT
# USER AGENT: Mozilla/5.0 (Windows NT 10.0; Win64; x64) AppleWebKit/537.36 (KHTML, like Gecko) Chrome/131.0.0.0 Safari/537.36
# Design number was non-random = 0
#
# Columns below this comment are as follows:
# 1. Results reception time.
# 2. MD5 hash of participant's IP address.
# 3. Controller name.
# 4. Order number of item.
# 5. Inner element number.
# 6. Label.
# 7. Latin Square Group.
# 8. PennElementType.
# 9. PennElementName.
# 10. Parameter.
# 11. Value.
# 12. EventTime.
# 13. Comments.
1737552114,c2a6e53f5f6a5ef01c86cf67ae5c669b,PennController,0,0,TCLE,NULL,PennController,0,_Trial_,Start,1737550687083,NULL
1737552114,c2a6e53f5f6a5ef01c86cf67ae5c669b,PennController,0,0,TCLE,NULL,PennController,0,_Trial_,End,1737550690808,NULL
1737552114,c2a6e53f5f6a5ef01c86cf67ae5c669b,PennController,3,0,instrucoes,NULL,PennController,3,_Trial_,Start,1737550690812,NULL
1737552114,c2a6e53f5f6a5ef01c86cf67ae5c669b,PennController,3,0,instrucoes,NULL,PennController,3,_Trial_,End,1737550692941,NULL
1737552114,c2a6e53f5f6a5ef01c86cf67ae5c669b,PennController,1,0,genero,NULL,PennController,1,_Trial_,Start,1737550692943,NULL
1737552114,c2a6e53f5f6a5ef01c86cf67ae5c669b,PennController,1,0,genero,NULL,DropDown,selecionaGenero,Selected,Feminino,1737550708412,1
1737552114,c2a6e53f5f6a5ef01c86cf67ae5c669b,PennController,1,0,genero,NULL,PennController,1,_Trial_,End,1737550709223,NULL
1737552114,c2a6e53f5f6a5ef01c86cf67ae5c669b,PennController,4,0,frases,NULL,PennController,5,_Trial_,Start,1737550709224,NULL
1737552114,c2a6e53f5f6a5ef01c86cf67ae5c669b,PennController,4,0,frases,NULL,Selector,classificacao,Selection,neutra,1737550731767,negativa;neutra;positiva
1737552114,c2a6e53f5f6a5ef01c86cf67ae5c669b,PennController,4,0,frases,NULL,PennController,5,_Trial_,End,1737550731768,NULL
1737552114,c2a6e53f5f6a5ef01c86cf67ae5c669b,PennController,5,0,frases,NULL,PennController,6,_Trial_,Start,1737550731769,NULL
1737552114,c2a6e53f5f6a5ef01c86cf67ae5c669b,PennController,5,0,frases,NULL,Selector,classificacao,Selection,negativa,1737550735454,negativa;neutra;positiva
1737552114,c2a6e53f5f6a5ef01c86cf67ae5c669b,PennController,5,0,frases,NULL,PennController,6,_Trial_,End,1737550735456,NULL
1737552114,c2a6e53f5f6a5ef01c86cf67ae5c669b,PennController,6,0,frases,NULL,PennController,7,_Trial_,Start,1737550735457,NULL
1737552114,c2a6e53f5f6a5ef01c86cf67ae5c669b,PennController,6,0,frases,NULL,Selector,classificacao,Selection,neutra,1737550744680,negativa;neutra;positiva
1737552114,c2a6e53f5f6a5ef01c86cf67ae5c669b,PennController,6,0,frases,NULL,PennController,7,_Trial_,End,1737550744681,NULL
1737552114,c2a6e53f5f6a5ef01c86cf67ae5c669b,PennController,7,0,frases,NULL,PennController,8,_Trial_,Start,1737550744682,NULL
1737552114,c2a6e53f5f6a5ef01c86cf67ae5c669b,PennController,7,0,frases,NULL,Selector,classificacao,Selection,neutra,1737550747454,negativa;neutra;positiva
1737552114,c2a6e53f5f6a5ef01c86cf67ae5c669b,PennController,7,0,frases,NULL,PennController,8,_Trial_,End,1737550747455,NULL
1737552114,c2a6e53f5f6a5ef01c86cf67ae5c669b,PennController,8,0,frases,NULL,PennController,9,_Trial_,Start,1737550747457,NULL
1737552114,c2a6e53f5f6a5ef01c86cf67ae5c669b,PennController,8,0,frases,NULL,Selector,classificacao,Selection,neutra,1737550751918,negativa;neutra;positiva
1737552114,c2a6e53f5f6a5ef01c86cf67ae5c669b,PennController,8,0,frases,NULL,PennController,9,_Trial_,End,1737550751919,NULL
1737552114,c2a6e53f5f6a5ef01c86cf67ae5c669b,PennController,9,0,frases,NULL,PennController,10,_Trial_,Start,1737550751921,NULL
1737552114,c2a6e53f5f6a5ef01c86cf67ae5c669b,PennController,9,0,frases,NULL,Selector,classificacao,Selection,negativa,1737550759232,negativa;neutra;positiva
1737552114,c2a6e53f5f6a5ef01c86cf67ae5c669b,PennController,9,0,frases,NULL,PennController,10,_Trial_,End,1737550759233,NULL
1737552114,c2a6e53f5f6a5ef01c86cf67ae5c669b,PennController,10,0,frases,NULL,PennController,11,_Trial_,Start,1737550759235,NULL
1737552114,c2a6e53f5f6a5ef01c86cf67ae5c669b,PennController,10,0,frases,NULL,Selector,classificacao,Selection,neutra,1737550761128,negativa;neutra;positiva
1737552114,c2a6e53f5f6a5ef01c86cf67ae5c669b,PennController,10,0,frases,NULL,PennController,11,_Trial_,End,1737550761129,NULL
1737552114,c2a6e53f5f6a5ef01c86cf67ae5c669b,PennController,11,0,frases,NULL,PennController,12,_Trial_,Start,1737550761130,NULL
1737552114,c2a6e53f5f6a5ef01c86cf67ae5c669b,PennController,11,0,frases,NULL,Selector,classificacao,Selection,positiva,1737550765128,negativa;neutra;positiva
1737552114,c2a6e53f5f6a5ef01c86cf67ae5c669b,PennController,11,0,frases,NULL,PennController,12,_Trial_,End,1737550765129,NULL
1737552114,c2a6e53f5f6a5ef01c86cf67ae5c669b,PennController,12,0,frases,NULL,PennController,13,_Trial_,Start,1737550765130,NULL
1737552114,c2a6e53f5f6a5ef01c86cf67ae5c669b,PennController,12,0,frases,NULL,Selector,classificacao,Selection,positiva,1737550768912,negativa;neutra;positiva
1737552114,c2a6e53f5f6a5ef01c86cf67ae5c669b,PennController,12,0,frases,NULL,PennController,13,_Trial_,End,1737550768913,NULL
1737552114,c2a6e53f5f6a5ef01c86cf67ae5c669b,PennController,13,0,frases,NULL,PennController,14,_Trial_,Start,1737550768914,NULL
1737552114,c2a6e53f5f6a5ef01c86cf67ae5c669b,PennController,13,0,frases,NULL,Selector,classificacao,Selection,negativa,1737550774742,negativa;neutra;positiva
1737552114,c2a6e53f5f6a5ef01c86cf67ae5c669b,PennController,13,0,frases,NULL,PennController,14,_Trial_,End,1737550774743,NULL
1737552114,c2a6e53f5f6a5ef01c86cf67ae5c669b,PennController,14,0,frases,NULL,PennController,15,_Trial_,Start,1737550774744,NULL
1737552114,c2a6e53f5f6a5ef01c86cf67ae5c669b,PennController,14,0,frases,NULL,Selector,classificacao,Selection,negativa,1737550778790,negativa;neutra;positiva
1737552114,c2a6e53f5f6a5ef01c86cf67ae5c669b,PennController,14,0,frases,NULL,PennController,15,_Trial_,End,1737550778792,NULL
1737552114,c2a6e53f5f6a5ef01c86cf67ae5c669b,PennController,15,0,frases,NULL,PennController,16,_Trial_,Start,1737550778794,NULL
1737552114,c2a6e53f5f6a5ef01c86cf67ae5c669b,PennController,15,0,frases,NULL,Selector,classificacao,Selection,positiva,1737550786338,negativa;neutra;positiva
1737552114,c2a6e53f5f6a5ef01c86cf67ae5c669b,PennController,15,0,frases,NULL,PennController,16,_Trial_,End,1737550786339,NULL
1737552114,c2a6e53f5f6a5ef01c86cf67ae5c669b,PennController,16,0,frases,NULL,PennController,17,_Trial_,Start,1737550786340,NULL
1737552114,c2a6e53f5f6a5ef01c86cf67ae5c669b,PennController,16,0,frases,NULL,Selector,classificacao,Selection,positiva,1737550797052,negativa;neutra;positiva
1737552114,c2a6e53f5f6a5ef01c86cf67ae5c669b,PennController,16,0,frases,NULL,PennController,17,_Trial_,End,1737550797053,NULL
1737552114,c2a6e53f5f6a5ef01c86cf67ae5c669b,PennController,17,0,frases,NULL,PennController,18,_Trial_,Start,1737550797054,NULL
1737552114,c2a6e53f5f6a5ef01c86cf67ae5c669b,PennController,17,0,frases,NULL,Selector,classificacao,Selection,negativa,1737550807796,negativa;neutra;positiva
1737552114,c2a6e53f5f6a5ef01c86cf67ae5c669b,PennController,17,0,frases,NULL,PennController,18,_Trial_,End,1737550807797,NULL
1737552114,c2a6e53f5f6a5ef01c86cf67ae5c669b,PennController,18,0,frases,NULL,PennController,19,_Trial_,Start,1737550807798,NULL
1737552114,c2a6e53f5f6a5ef01c86cf67ae5c669b,PennController,18,0,frases,NULL,Selector,classificacao,Selection,neutra,1737550821728,negativa;neutra;positiva
1737552114,c2a6e53f5f6a5ef01c86cf67ae5c669b,PennController,18,0,frases,NULL,PennController,19,_Trial_,End,1737550821729,NULL
1737552114,c2a6e53f5f6a5ef01c86cf67ae5c669b,PennController,19,0,frases,NULL,PennController,20,_Trial_,Start,1737550821730,NULL
1737552114,c2a6e53f5f6a5ef01c86cf67ae5c669b,PennController,19,0,frases,NULL,Selector,classificacao,Selection,neutra,1737550833532,negativa;neutra;positiva
1737552114,c2a6e53f5f6a5ef01c86cf67ae5c669b,PennController,19,0,frases,NULL,PennController,20,_Trial_,End,1737550833532,NULL
1737552114,c2a6e53f5f6a5ef01c86cf67ae5c669b,PennController,20,0,frases,NULL,PennController,21,_Trial_,Start,1737550833533,NULL
1737552114,c2a6e53f5f6a5ef01c86cf67ae5c669b,PennController,20,0,frases,NULL,Selector,classificacao,Selection,neutra,1737550835433,negativa;neutra;positiva
1737552114,c2a6e53f5f6a5ef01c86cf67ae5c669b,PennController,20,0,frases,NULL,PennController,21,_Trial_,End,1737550835434,NULL
1737552114,c2a6e53f5f6a5ef01c86cf67ae5c669b,PennController,21,0,frases,NULL,PennController,22,_Trial_,Start,1737550835435,NULL
1737552114,c2a6e53f5f6a5ef01c86cf67ae5c669b,PennController,21,0,frases,NULL,Selector,classificacao,Selection,neutra,1737550837900,negativa;neutra;positiva
1737552114,c2a6e53f5f6a5ef01c86cf67ae5c669b,PennController,21,0,frases,NULL,PennController,22,_Trial_,End,1737550837901,NULL
1737552114,c2a6e53f5f6a5ef01c86cf67ae5c669b,PennController,22,0,frases,NULL,PennController,23,_Trial_,Start,1737550837902,NULL
1737552114,c2a6e53f5f6a5ef01c86cf67ae5c669b,PennController,22,0,frases,NULL,Selector,classificacao,Selection,negativa,1737550843234,negativa;neutra;positiva
1737552114,c2a6e53f5f6a5ef01c86cf67ae5c669b,PennController,22,0,frases,NULL,PennController,23,_Trial_,End,1737550843235,NULL
1737552114,c2a6e53f5f6a5ef01c86cf67ae5c669b,PennController,23,0,frases,NULL,PennController,24,_Trial_,Start,1737550843236,NULL
1737552114,c2a6e53f5f6a5ef01c86cf67ae5c669b,PennController,23,0,frases,NULL,Selector,classificacao,Selection,positiva,1737550846128,negativa;neutra;positiva
1737552114,c2a6e53f5f6a5ef01c86cf67ae5c669b,PennController,23,0,frases,NULL,PennController,24,_Trial_,End,1737550846129,NULL
1737552114,c2a6e53f5f6a5ef01c86cf67ae5c669b,PennController,24,0,frases,NULL,PennController,25,_Trial_,Start,1737550846130,NULL
1737552114,c2a6e53f5f6a5ef01c86cf67ae5c669b,PennController,24,0,frases,NULL,Selector,classificacao,Selection,positiva,1737550849976,negativa;neutra;positiva
1737552114,c2a6e53f5f6a5ef01c86cf67ae5c669b,PennController,24,0,frases,NULL,PennController,25,_Trial_,End,1737550849977,NULL
1737552114,c2a6e53f5f6a5ef01c86cf67ae5c669b,PennController,25,0,frases,NULL,PennController,26,_Trial_,Start,1737550849978,NULL
1737552114,c2a6e53f5f6a5ef01c86cf67ae5c669b,PennController,25,0,frases,NULL,Selector,classificacao,Selection,positiva,1737550857082,negativa;neutra;positiva
1737552114,c2a6e53f5f6a5ef01c86cf67ae5c669b,PennController,25,0,frases,NULL,PennController,26,_Trial_,End,1737550857083,NULL
1737552114,c2a6e53f5f6a5ef01c86cf67ae5c669b,PennController,26,0,frases,NULL,PennController,27,_Trial_,Start,1737550857085,NULL
1737552114,c2a6e53f5f6a5ef01c86cf67ae5c669b,PennController,26,0,frases,NULL,Selector,classificacao,Selection,negativa,1737550859725,negativa;neutra;positiva
1737552114,c2a6e53f5f6a5ef01c86cf67ae5c669b,PennController,26,0,frases,NULL,PennController,27,_Trial_,End,1737550859726,NULL
1737552114,c2a6e53f5f6a5ef01c86cf67ae5c669b,PennController,27,0,frases,NULL,PennController,28,_Trial_,Start,1737550859727,NULL
1737552114,c2a6e53f5f6a5ef01c86cf67ae5c669b,PennController,27,0,frases,NULL,Selector,classificacao,Selection,negativa,1737550864260,negativa;neutra;positiva
1737552114,c2a6e53f5f6a5ef01c86cf67ae5c669b,PennController,27,0,frases,NULL,PennController,28,_Trial_,End,1737550864261,NULL
1737552114,c2a6e53f5f6a5ef01c86cf67ae5c669b,PennController,28,0,frases,NULL,PennController,29,_Trial_,Start,1737550864262,NULL
1737552114,c2a6e53f5f6a5ef01c86cf67ae5c669b,PennController,28,0,frases,NULL,Selector,classificacao,Selection,neutra,1737550867671,negativa;neutra;positiva
1737552114,c2a6e53f5f6a5ef01c86cf67ae5c669b,PennController,28,0,frases,NULL,PennController,29,_Trial_,End,1737550867672,NULL
1737552114,c2a6e53f5f6a5ef01c86cf67ae5c669b,PennController,29,0,frases,NULL,PennController,30,_Trial_,Start,1737550867674,NULL
1737552114,c2a6e53f5f6a5ef01c86cf67ae5c669b,PennController,29,0,frases,NULL,Selector,classificacao,Selection,neutra,1737550872191,negativa;neutra;positiva
1737552114,c2a6e53f5f6a5ef01c86cf67ae5c669b,PennController,29,0,frases,NULL,PennController,30,_Trial_,End,1737550872192,NULL
1737552114,c2a6e53f5f6a5ef01c86cf67ae5c669b,PennController,30,0,frases,NULL,PennController,31,_Trial_,Start,1737550872194,NULL
1737552114,c2a6e53f5f6a5ef01c86cf67ae5c669b,PennController,30,0,frases,NULL,Selector,classificacao,Selection,neutra,1737550881829,negativa;neutra;positiva
1737552114,c2a6e53f5f6a5ef01c86cf67ae5c669b,PennController,30,0,frases,NULL,PennController,31,_Trial_,End,1737550881830,NULL
1737552114,c2a6e53f5f6a5ef01c86cf67ae5c669b,PennController,31,0,frases,NULL,PennController,32,_Trial_,Start,1737550881830,NULL
1737552114,c2a6e53f5f6a5ef01c86cf67ae5c669b,PennController,31,0,frases,NULL,Selector,classificacao,Selection,neutra,1737550886228,negativa;neutra;positiva
1737552114,c2a6e53f5f6a5ef01c86cf67ae5c669b,PennController,31,0,frases,NULL,PennController,32,_Trial_,End,1737550886229,NULL
1737552114,c2a6e53f5f6a5ef01c86cf67ae5c669b,PennController,32,0,frases,NULL,PennController,33,_Trial_,Start,1737550886230,NULL
1737552114,c2a6e53f5f6a5ef01c86cf67ae5c669b,PennController,32,0,frases,NULL,Selector,classificacao,Selection,neutra,1737550890712,negativa;neutra;positiva
1737552114,c2a6e53f5f6a5ef01c86cf67ae5c669b,PennController,32,0,frases,NULL,PennController,33,_Trial_,End,1737550890713,NULL
1737552114,c2a6e53f5f6a5ef01c86cf67ae5c669b,PennController,33,0,frases,NULL,PennController,34,_Trial_,Start,1737550890714,NULL
1737552114,c2a6e53f5f6a5ef01c86cf67ae5c669b,PennController,33,0,frases,NULL,Selector,classificacao,Selection,neutra,1737550896679,negativa;neutra;positiva
1737552114,c2a6e53f5f6a5ef01c86cf67ae5c669b,PennController,33,0,frases,NULL,PennController,34,_Trial_,End,1737550896680,NULL
1737552114,c2a6e53f5f6a5ef01c86cf67ae5c669b,PennController,34,0,frases,NULL,PennController,35,_Trial_,Start,1737550896681,NULL
1737552114,c2a6e53f5f6a5ef01c86cf67ae5c669b,PennController,34,0,frases,NULL,Selector,classificacao,Selection,neutra,1737550899190,negativa;neutra;positiva
1737552114,c2a6e53f5f6a5ef01c86cf67ae5c669b,PennController,34,0,frases,NULL,PennController,35,_Trial_,End,1737550899191,NULL
1737552114,c2a6e53f5f6a5ef01c86cf67ae5c669b,PennController,35,0,frases,NULL,PennController,36,_Trial_,Start,1737550899191,NULL
1737552114,c2a6e53f5f6a5ef01c86cf67ae5c669b,PennController,35,0,frases,NULL,Selector,classificacao,Selection,neutra,1737550909667,negativa;neutra;positiva
1737552114,c2a6e53f5f6a5ef01c86cf67ae5c669b,PennController,35,0,frases,NULL,PennController,36,_Trial_,End,1737550909669,NULL
1737552114,c2a6e53f5f6a5ef01c86cf67ae5c669b,PennController,36,0,frases,NULL,PennController,37,_Trial_,Start,1737550909670,NULL
1737552114,c2a6e53f5f6a5ef01c86cf67ae5c669b,PennController,36,0,frases,NULL,Selector,classificacao,Selection,negativa,1737551030058,negativa;neutra;positiva
1737552114,c2a6e53f5f6a5ef01c86cf67ae5c669b,PennController,36,0,frases,NULL,PennController,37,_Trial_,End,1737551030059,NULL
1737552114,c2a6e53f5f6a5ef01c86cf67ae5c669b,PennController,37,0,frases,NULL,PennController,38,_Trial_,Start,1737551030059,NULL
1737552114,c2a6e53f5f6a5ef01c86cf67ae5c669b,PennController,37,0,frases,NULL,Selector,classificacao,Selection,neutra,1737551044450,negativa;neutra;positiva
1737552114,c2a6e53f5f6a5ef01c86cf67ae5c669b,PennController,37,0,frases,NULL,PennController,38,_Trial_,End,1737551044451,NULL
1737552114,c2a6e53f5f6a5ef01c86cf67ae5c669b,PennController,38,0,frases,NULL,PennController,39,_Trial_,Start,1737551044451,NULL
1737552114,c2a6e53f5f6a5ef01c86cf67ae5c669b,PennController,38,0,frases,NULL,Selector,classificacao,Selection,neutra,1737551049960,negativa;neutra;positiva
1737552114,c2a6e53f5f6a5ef01c86cf67ae5c669b,PennController,38,0,frases,NULL,PennController,39,_Trial_,End,1737551049961,NULL
1737552114,c2a6e53f5f6a5ef01c86cf67ae5c669b,PennController,39,0,frases,NULL,PennController,40,_Trial_,Start,1737551049962,NULL
1737552114,c2a6e53f5f6a5ef01c86cf67ae5c669b,PennController,39,0,frases,NULL,Selector,classificacao,Selection,positiva,1737551059422,negativa;neutra;positiva
1737552114,c2a6e53f5f6a5ef01c86cf67ae5c669b,PennController,39,0,frases,NULL,PennController,40,_Trial_,End,1737551059423,NULL
1737552114,c2a6e53f5f6a5ef01c86cf67ae5c669b,PennController,40,0,frases,NULL,PennController,41,_Trial_,Start,1737551059424,NULL
1737552114,c2a6e53f5f6a5ef01c86cf67ae5c669b,PennController,40,0,frases,NULL,Selector,classificacao,Selection,neutra,1737551061941,negativa;neutra;positiva
1737552114,c2a6e53f5f6a5ef01c86cf67ae5c669b,PennController,40,0,frases,NULL,PennController,41,_Trial_,End,1737551061942,NULL
1737552114,c2a6e53f5f6a5ef01c86cf67ae5c669b,PennController,41,0,frases,NULL,PennController,42,_Trial_,Start,1737551061943,NULL
1737552114,c2a6e53f5f6a5ef01c86cf67ae5c669b,PennController,41,0,frases,NULL,Selector,classificacao,Selection,neutra,1737551063849,negativa;neutra;positiva
1737552114,c2a6e53f5f6a5ef01c86cf67ae5c669b,PennController,41,0,frases,NULL,PennController,42,_Trial_,End,1737551063850,NULL
1737552114,c2a6e53f5f6a5ef01c86cf67ae5c669b,PennController,42,0,frases,NULL,PennController,43,_Trial_,Start,1737551063851,NULL
1737552114,c2a6e53f5f6a5ef01c86cf67ae5c669b,PennController,42,0,frases,NULL,Selector,classificacao,Selection,neutra,1737551073063,negativa;neutra;positiva
1737552114,c2a6e53f5f6a5ef01c86cf67ae5c669b,PennController,42,0,frases,NULL,PennController,43,_Trial_,End,1737551073064,NULL
1737552114,c2a6e53f5f6a5ef01c86cf67ae5c669b,PennController,43,0,frases,NULL,PennController,44,_Trial_,Start,1737551073065,NULL
1737552114,c2a6e53f5f6a5ef01c86cf67ae5c669b,PennController,43,0,frases,NULL,Selector,classificacao,Selection,neutra,1737551074423,negativa;neutra;positiva
1737552114,c2a6e53f5f6a5ef01c86cf67ae5c669b,PennController,43,0,frases,NULL,PennController,44,_Trial_,End,1737551074424,NULL
1737552114,c2a6e53f5f6a5ef01c86cf67ae5c669b,PennController,44,0,frases,NULL,PennController,45,_Trial_,Start,1737551074424,NULL
1737552114,c2a6e53f5f6a5ef01c86cf67ae5c669b,PennController,44,0,frases,NULL,Selector,classificacao,Selection,neutra,1737551076555,negativa;neutra;positiva
1737552114,c2a6e53f5f6a5ef01c86cf67ae5c669b,PennController,44,0,frases,NULL,PennController,45,_Trial_,End,1737551076556,NULL
1737552114,c2a6e53f5f6a5ef01c86cf67ae5c669b,PennController,45,0,frases,NULL,PennController,46,_Trial_,Start,1737551076557,NULL
1737552114,c2a6e53f5f6a5ef01c86cf67ae5c669b,PennController,45,0,frases,NULL,Selector,classificacao,Selection,negativa,1737551084653,negativa;neutra;positiva
1737552114,c2a6e53f5f6a5ef01c86cf67ae5c669b,PennController,45,0,frases,NULL,PennController,46,_Trial_,End,1737551084654,NULL
1737552114,c2a6e53f5f6a5ef01c86cf67ae5c669b,PennController,46,0,frases,NULL,PennController,47,_Trial_,Start,1737551084654,NULL
1737552114,c2a6e53f5f6a5ef01c86cf67ae5c669b,PennController,46,0,frases,NULL,Selector,classificacao,Selection,neutra,1737551094641,negativa;neutra;positiva
1737552114,c2a6e53f5f6a5ef01c86cf67ae5c669b,PennController,46,0,frases,NULL,PennController,47,_Trial_,End,1737551094642,NULL
1737552114,c2a6e53f5f6a5ef01c86cf67ae5c669b,PennController,47,0,frases,NULL,PennController,48,_Trial_,Start,1737551094643,NULL
1737552114,c2a6e53f5f6a5ef01c86cf67ae5c669b,PennController,47,0,frases,NULL,Selector,classificacao,Selection,neutra,1737551101926,negativa;neutra;positiva
1737552114,c2a6e53f5f6a5ef01c86cf67ae5c669b,PennController,47,0,frases,NULL,PennController,48,_Trial_,End,1737551101927,NULL
1737552114,c2a6e53f5f6a5ef01c86cf67ae5c669b,PennController,48,0,frases,NULL,PennController,49,_Trial_,Start,1737551101928,NULL
1737552114,c2a6e53f5f6a5ef01c86cf67ae5c669b,PennController,48,0,frases,NULL,Selector,classificacao,Selection,neutra,1737551107950,negativa;neutra;positiva
1737552114,c2a6e53f5f6a5ef01c86cf67ae5c669b,PennController,48,0,frases,NULL,PennController,49,_Trial_,End,1737551107951,NULL
1737552114,c2a6e53f5f6a5ef01c86cf67ae5c669b,PennController,49,0,frases,NULL,PennController,50,_Trial_,Start,1737551107952,NULL
1737552114,c2a6e53f5f6a5ef01c86cf67ae5c669b,PennController,49,0,frases,NULL,Selector,classificacao,Selection,neutra,1737551112402,negativa;neutra;positiva
1737552114,c2a6e53f5f6a5ef01c86cf67ae5c669b,PennController,49,0,frases,NULL,PennController,50,_Trial_,End,1737551112403,NULL
1737552114,c2a6e53f5f6a5ef01c86cf67ae5c669b,PennController,50,0,frases,NULL,PennController,51,_Trial_,Start,1737551112403,NULL
1737552114,c2a6e53f5f6a5ef01c86cf67ae5c669b,PennController,50,0,frases,NULL,Selector,classificacao,Selection,positiva,1737551117475,negativa;neutra;positiva
1737552114,c2a6e53f5f6a5ef01c86cf67ae5c669b,PennController,50,0,frases,NULL,PennController,51,_Trial_,End,1737551117476,NULL
1737552114,c2a6e53f5f6a5ef01c86cf67ae5c669b,PennController,51,0,frases,NULL,PennController,52,_Trial_,Start,1737551117478,NULL
1737552114,c2a6e53f5f6a5ef01c86cf67ae5c669b,PennController,51,0,frases,NULL,Selector,classificacao,Selection,negativa,1737551123282,negativa;neutra;positiva
1737552114,c2a6e53f5f6a5ef01c86cf67ae5c669b,PennController,51,0,frases,NULL,PennController,52,_Trial_,End,1737551123283,NULL
1737552114,c2a6e53f5f6a5ef01c86cf67ae5c669b,PennController,52,0,frases,NULL,PennController,53,_Trial_,Start,1737551123284,NULL
1737552114,c2a6e53f5f6a5ef01c86cf67ae5c669b,PennController,52,0,frases,NULL,Selector,classificacao,Selection,positiva,1737551129881,negativa;neutra;positiva
1737552114,c2a6e53f5f6a5ef01c86cf67ae5c669b,PennController,52,0,frases,NULL,PennController,53,_Trial_,End,1737551129882,NULL
1737552114,c2a6e53f5f6a5ef01c86cf67ae5c669b,PennController,53,0,frases,NULL,PennController,54,_Trial_,Start,1737551129883,NULL
1737552114,c2a6e53f5f6a5ef01c86cf67ae5c669b,PennController,53,0,frases,NULL,Selector,classificacao,Selection,neutra,1737551135379,negativa;neutra;positiva
1737552114,c2a6e53f5f6a5ef01c86cf67ae5c669b,PennController,53,0,frases,NULL,PennController,54,_Trial_,End,1737551135380,NULL
1737552114,c2a6e53f5f6a5ef01c86cf67ae5c669b,PennController,54,0,frases,NULL,PennController,55,_Trial_,Start,1737551135381,NULL
1737552114,c2a6e53f5f6a5ef01c86cf67ae5c669b,PennController,54,0,frases,NULL,Selector,classificacao,Selection,negativa,1737551139670,negativa;neutra;positiva
1737552114,c2a6e53f5f6a5ef01c86cf67ae5c669b,PennController,54,0,frases,NULL,PennController,55,_Trial_,End,1737551139673,NULL
1737552114,c2a6e53f5f6a5ef01c86cf67ae5c669b,PennController,55,0,frases,NULL,PennController,56,_Trial_,Start,1737551139673,NULL
1737552114,c2a6e53f5f6a5ef01c86cf67ae5c669b,PennController,55,0,frases,NULL,Selector,classificacao,Selection,neutra,1737551142212,negativa;neutra;positiva
1737552114,c2a6e53f5f6a5ef01c86cf67ae5c669b,PennController,55,0,frases,NULL,PennController,56,_Trial_,End,1737551142213,NULL
1737552114,c2a6e53f5f6a5ef01c86cf67ae5c669b,PennController,56,0,frases,NULL,PennController,57,_Trial_,Start,1737551142214,NULL
1737552114,c2a6e53f5f6a5ef01c86cf67ae5c669b,PennController,56,0,frases,NULL,Selector,classificacao,Selection,neutra,1737551144127,negativa;neutra;positiva
1737552114,c2a6e53f5f6a5ef01c86cf67ae5c669b,PennController,56,0,frases,NULL,PennController,57,_Trial_,End,1737551144128,NULL
1737552114,c2a6e53f5f6a5ef01c86cf67ae5c669b,PennController,57,0,frases,NULL,PennController,58,_Trial_,Start,1737551144129,NULL
1737552114,c2a6e53f5f6a5ef01c86cf67ae5c669b,PennController,57,0,frases,NULL,Selector,classificacao,Selection,neutra,1737551148872,negativa;neutra;positiva
1737552114,c2a6e53f5f6a5ef01c86cf67ae5c669b,PennController,57,0,frases,NULL,PennController,58,_Trial_,End,1737551148873,NULL
1737552114,c2a6e53f5f6a5ef01c86cf67ae5c669b,PennController,58,0,frases,NULL,PennController,59,_Trial_,Start,1737551148875,NULL
1737552114,c2a6e53f5f6a5ef01c86cf67ae5c669b,PennController,58,0,frases,NULL,Selector,classificacao,Selection,neutra,1737551154414,negativa;neutra;positiva
1737552114,c2a6e53f5f6a5ef01c86cf67ae5c669b,PennController,58,0,frases,NULL,PennController,59,_Trial_,End,1737551154416,NULL
1737552114,c2a6e53f5f6a5ef01c86cf67ae5c669b,PennController,59,0,frases,NULL,PennController,60,_Trial_,Start,1737551154417,NULL
1737552114,c2a6e53f5f6a5ef01c86cf67ae5c669b,PennController,59,0,frases,NULL,Selector,classificacao,Selection,neutra,1737551159456,negativa;neutra;positiva
1737552114,c2a6e53f5f6a5ef01c86cf67ae5c669b,PennController,59,0,frases,NULL,PennController,60,_Trial_,End,1737551159457,NULL
1737552114,c2a6e53f5f6a5ef01c86cf67ae5c669b,PennController,60,0,frases,NULL,PennController,61,_Trial_,Start,1737551159458,NULL
1737552114,c2a6e53f5f6a5ef01c86cf67ae5c669b,PennController,60,0,frases,NULL,Selector,classificacao,Selection,neutra,1737551161042,negativa;neutra;positiva
1737552114,c2a6e53f5f6a5ef01c86cf67ae5c669b,PennController,60,0,frases,NULL,PennController,61,_Trial_,End,1737551161044,NULL
1737552114,c2a6e53f5f6a5ef01c86cf67ae5c669b,PennController,61,0,frases,NULL,PennController,62,_Trial_,Start,1737551161045,NULL
1737552114,c2a6e53f5f6a5ef01c86cf67ae5c669b,PennController,61,0,frases,NULL,Selector,classificacao,Selection,neutra,1737551162706,negativa;neutra;positiva
1737552114,c2a6e53f5f6a5ef01c86cf67ae5c669b,PennController,61,0,frases,NULL,PennController,62,_Trial_,End,1737551162707,NULL
1737552114,c2a6e53f5f6a5ef01c86cf67ae5c669b,PennController,62,0,frases,NULL,PennController,63,_Trial_,Start,1737551162708,NULL
1737552114,c2a6e53f5f6a5ef01c86cf67ae5c669b,PennController,62,0,frases,NULL,Selector,classificacao,Selection,neutra,1737551165281,negativa;neutra;positiva
1737552114,c2a6e53f5f6a5ef01c86cf67ae5c669b,PennController,62,0,frases,NULL,PennController,63,_Trial_,End,1737551165282,NULL
1737552114,c2a6e53f5f6a5ef01c86cf67ae5c669b,PennController,63,0,frases,NULL,PennController,64,_Trial_,Start,1737551165283,NULL
1737552114,c2a6e53f5f6a5ef01c86cf67ae5c669b,PennController,63,0,frases,NULL,Selector,classificacao,Selection,neutra,1737551167084,negativa;neutra;positiva
1737552114,c2a6e53f5f6a5ef01c86cf67ae5c669b,PennController,63,0,frases,NULL,PennController,64,_Trial_,End,1737551167085,NULL
1737552114,c2a6e53f5f6a5ef01c86cf67ae5c669b,PennController,64,0,frases,NULL,PennController,65,_Trial_,Start,1737551167086,NULL
1737552114,c2a6e53f5f6a5ef01c86cf67ae5c669b,PennController,64,0,frases,NULL,Selector,classificacao,Selection,neutra,1737551168462,negativa;neutra;positiva
1737552114,c2a6e53f5f6a5ef01c86cf67ae5c669b,PennController,64,0,frases,NULL,PennController,65,_Trial_,End,1737551168463,NULL
1737552114,c2a6e53f5f6a5ef01c86cf67ae5c669b,PennController,65,0,frases,NULL,PennController,66,_Trial_,Start,1737551168464,NULL
1737552114,c2a6e53f5f6a5ef01c86cf67ae5c669b,PennController,65,0,frases,NULL,Selector,classificacao,Selection,neutra,1737551174318,negativa;neutra;positiva
1737552114,c2a6e53f5f6a5ef01c86cf67ae5c669b,PennController,65,0,frases,NULL,PennController,66,_Trial_,End,1737551174320,NULL
1737552114,c2a6e53f5f6a5ef01c86cf67ae5c669b,PennController,66,0,frases,NULL,PennController,67,_Trial_,Start,1737551174321,NULL
1737552114,c2a6e53f5f6a5ef01c86cf67ae5c669b,PennController,66,0,frases,NULL,Selector,classificacao,Selection,negativa,1737551178344,negativa;neutra;positiva
1737552114,c2a6e53f5f6a5ef01c86cf67ae5c669b,PennController,66,0,frases,NULL,PennController,67,_Trial_,End,1737551178345,NULL
1737552114,c2a6e53f5f6a5ef01c86cf67ae5c669b,PennController,67,0,frases,NULL,PennController,68,_Trial_,Start,1737551178346,NULL
1737552114,c2a6e53f5f6a5ef01c86cf67ae5c669b,PennController,67,0,frases,NULL,Selector,classificacao,Selection,negativa,1737551186226,negativa;neutra;positiva
1737552114,c2a6e53f5f6a5ef01c86cf67ae5c669b,PennController,67,0,frases,NULL,PennController,68,_Trial_,End,1737551186228,NULL
1737552114,c2a6e53f5f6a5ef01c86cf67ae5c669b,PennController,68,0,frases,NULL,PennController,69,_Trial_,Start,1737551186229,NULL
1737552114,c2a6e53f5f6a5ef01c86cf67ae5c669b,PennController,68,0,frases,NULL,Selector,classificacao,Selection,neutra,1737551188756,negativa;neutra;positiva
1737552114,c2a6e53f5f6a5ef01c86cf67ae5c669b,PennController,68,0,frases,NULL,PennController,69,_Trial_,End,1737551188757,NULL
1737552114,c2a6e53f5f6a5ef01c86cf67ae5c669b,PennController,69,0,frases,NULL,PennController,70,_Trial_,Start,1737551188758,NULL
1737552114,c2a6e53f5f6a5ef01c86cf67ae5c669b,PennController,69,0,frases,NULL,Selector,classificacao,Selection,neutra,1737551198888,negativa;neutra;positiva
1737552114,c2a6e53f5f6a5ef01c86cf67ae5c669b,PennController,69,0,frases,NULL,PennController,70,_Trial_,End,1737551198889,NULL
1737552114,c2a6e53f5f6a5ef01c86cf67ae5c669b,PennController,70,0,frases,NULL,PennController,71,_Trial_,Start,1737551198890,NULL
1737552114,c2a6e53f5f6a5ef01c86cf67ae5c669b,PennController,70,0,frases,NULL,Selector,classificacao,Selection,neutra,1737551202212,negativa;neutra;positiva
1737552114,c2a6e53f5f6a5ef01c86cf67ae5c669b,PennController,70,0,frases,NULL,PennController,71,_Trial_,End,1737551202213,NULL
1737552114,c2a6e53f5f6a5ef01c86cf67ae5c669b,PennController,71,0,frases,NULL,PennController,72,_Trial_,Start,1737551202213,NULL
1737552114,c2a6e53f5f6a5ef01c86cf67ae5c669b,PennController,71,0,frases,NULL,Selector,classificacao,Selection,neutra,1737551209536,negativa;neutra;positiva
1737552114,c2a6e53f5f6a5ef01c86cf67ae5c669b,PennController,71,0,frases,NULL,PennController,72,_Trial_,End,1737551209537,NULL
1737552114,c2a6e53f5f6a5ef01c86cf67ae5c669b,PennController,72,0,frases,NULL,PennController,73,_Trial_,Start,1737551209538,NULL
1737552114,c2a6e53f5f6a5ef01c86cf67ae5c669b,PennController,72,0,frases,NULL,Selector,classificacao,Selection,neutra,1737551213773,negativa;neutra;positiva
1737552114,c2a6e53f5f6a5ef01c86cf67ae5c669b,PennController,72,0,frases,NULL,PennController,73,_Trial_,End,1737551213774,NULL
1737552114,c2a6e53f5f6a5ef01c86cf67ae5c669b,PennController,73,0,frases,NULL,PennController,74,_Trial_,Start,1737551213775,NULL
1737552114,c2a6e53f5f6a5ef01c86cf67ae5c669b,PennController,73,0,frases,NULL,Selector,classificacao,Selection,neutra,1737551216473,negativa;neutra;positiva
1737552114,c2a6e53f5f6a5ef01c86cf67ae5c669b,PennController,73,0,frases,NULL,PennController,74,_Trial_,End,1737551216473,NULL
1737552114,c2a6e53f5f6a5ef01c86cf67ae5c669b,PennController,74,0,frases,NULL,PennController,75,_Trial_,Start,1737551216474,NULL
1737552114,c2a6e53f5f6a5ef01c86cf67ae5c669b,PennController,74,0,frases,NULL,Selector,classificacao,Selection,positiva,1737551227042,negativa;neutra;positiva
1737552114,c2a6e53f5f6a5ef01c86cf67ae5c669b,PennController,74,0,frases,NULL,PennController,75,_Trial_,End,1737551227043,NULL
1737552114,c2a6e53f5f6a5ef01c86cf67ae5c669b,PennController,75,0,frases,NULL,PennController,76,_Trial_,Start,1737551227044,NULL
1737552114,c2a6e53f5f6a5ef01c86cf67ae5c669b,PennController,75,0,frases,NULL,Selector,classificacao,Selection,neutra,1737551229489,negativa;neutra;positiva
1737552114,c2a6e53f5f6a5ef01c86cf67ae5c669b,PennController,75,0,frases,NULL,PennController,76,_Trial_,End,1737551229491,NULL
1737552114,c2a6e53f5f6a5ef01c86cf67ae5c669b,PennController,76,0,frases,NULL,PennController,77,_Trial_,Start,1737551229491,NULL
1737552114,c2a6e53f5f6a5ef01c86cf67ae5c669b,PennController,76,0,frases,NULL,Selector,classificacao,Selection,neutra,1737551353642,negativa;neutra;positiva
1737552114,c2a6e53f5f6a5ef01c86cf67ae5c669b,PennController,76,0,frases,NULL,PennController,77,_Trial_,End,1737551353643,NULL
1737552114,c2a6e53f5f6a5ef01c86cf67ae5c669b,PennController,77,0,frases,NULL,PennController,78,_Trial_,Start,1737551353645,NULL
1737552114,c2a6e53f5f6a5ef01c86cf67ae5c669b,PennController,77,0,frases,NULL,Selector,classificacao,Selection,neutra,1737551365364,negativa;neutra;positiva
1737552114,c2a6e53f5f6a5ef01c86cf67ae5c669b,PennController,77,0,frases,NULL,PennController,78,_Trial_,End,1737551365365,NULL
1737552114,c2a6e53f5f6a5ef01c86cf67ae5c669b,PennController,78,0,frases,NULL,PennController,79,_Trial_,Start,1737551365366,NULL
1737552114,c2a6e53f5f6a5ef01c86cf67ae5c669b,PennController,78,0,frases,NULL,Selector,classificacao,Selection,neutra,1737551370397,negativa;neutra;positiva
1737552114,c2a6e53f5f6a5ef01c86cf67ae5c669b,PennController,78,0,frases,NULL,PennController,79,_Trial_,End,1737551370397,NULL
1737552114,c2a6e53f5f6a5ef01c86cf67ae5c669b,PennController,79,0,frases,NULL,PennController,80,_Trial_,Start,1737551370398,NULL
1737552114,c2a6e53f5f6a5ef01c86cf67ae5c669b,PennController,79,0,frases,NULL,Selector,classificacao,Selection,neutra,1737551377156,negativa;neutra;positiva
1737552114,c2a6e53f5f6a5ef01c86cf67ae5c669b,PennController,79,0,frases,NULL,PennController,80,_Trial_,End,1737551377157,NULL
1737552114,c2a6e53f5f6a5ef01c86cf67ae5c669b,PennController,80,0,frases,NULL,PennController,81,_Trial_,Start,1737551377158,NULL
1737552114,c2a6e53f5f6a5ef01c86cf67ae5c669b,PennController,80,0,frases,NULL,Selector,classificacao,Selection,neutra,1737551382892,negativa;neutra;positiva
1737552114,c2a6e53f5f6a5ef01c86cf67ae5c669b,PennController,80,0,frases,NULL,PennController,81,_Trial_,End,1737551382893,NULL
1737552114,c2a6e53f5f6a5ef01c86cf67ae5c669b,PennController,81,0,frases,NULL,PennController,82,_Trial_,Start,1737551382894,NULL
1737552114,c2a6e53f5f6a5ef01c86cf67ae5c669b,PennController,81,0,frases,NULL,Selector,classificacao,Selection,negativa,1737551385642,negativa;neutra;positiva
1737552114,c2a6e53f5f6a5ef01c86cf67ae5c669b,PennController,81,0,frases,NULL,PennController,82,_Trial_,End,1737551385643,NULL
1737552114,c2a6e53f5f6a5ef01c86cf67ae5c669b,PennController,82,0,frases,NULL,PennController,83,_Trial_,Start,1737551385644,NULL
1737552114,c2a6e53f5f6a5ef01c86cf67ae5c669b,PennController,82,0,frases,NULL,Selector,classificacao,Selection,neutra,1737551388058,negativa;neutra;positiva
1737552114,c2a6e53f5f6a5ef01c86cf67ae5c669b,PennController,82,0,frases,NULL,PennController,83,_Trial_,End,1737551388059,NULL
1737552114,c2a6e53f5f6a5ef01c86cf67ae5c669b,PennController,83,0,frases,NULL,PennController,84,_Trial_,Start,1737551388060,NULL
1737552114,c2a6e53f5f6a5ef01c86cf67ae5c669b,PennController,83,0,frases,NULL,Selector,classificacao,Selection,neutra,1737551391729,negativa;neutra;positiva
1737552114,c2a6e53f5f6a5ef01c86cf67ae5c669b,PennController,83,0,frases,NULL,PennController,84,_Trial_,End,1737551391730,NULL
1737552114,c2a6e53f5f6a5ef01c86cf67ae5c669b,PennController,84,0,frases,NULL,PennController,85,_Trial_,Start,1737551391731,NULL
1737552114,c2a6e53f5f6a5ef01c86cf67ae5c669b,PennController,84,0,frases,NULL,Selector,classificacao,Selection,neutra,1737551395417,negativa;neutra;positiva
1737552114,c2a6e53f5f6a5ef01c86cf67ae5c669b,PennController,84,0,frases,NULL,PennController,85,_Trial_,End,1737551395418,NULL
1737552114,c2a6e53f5f6a5ef01c86cf67ae5c669b,PennController,85,0,frases,NULL,PennController,86,_Trial_,Start,1737551395419,NULL
1737552114,c2a6e53f5f6a5ef01c86cf67ae5c669b,PennController,85,0,frases,NULL,Selector,classificacao,Selection,positiva,1737551404489,negativa;neutra;positiva
1737552114,c2a6e53f5f6a5ef01c86cf67ae5c669b,PennController,85,0,frases,NULL,PennController,86,_Trial_,End,1737551404490,NULL
1737552114,c2a6e53f5f6a5ef01c86cf67ae5c669b,PennController,86,0,frases,NULL,PennController,87,_Trial_,Start,1737551404491,NULL
1737552114,c2a6e53f5f6a5ef01c86cf67ae5c669b,PennController,86,0,frases,NULL,Selector,classificacao,Selection,neutra,1737551408483,negativa;neutra;positiva
1737552114,c2a6e53f5f6a5ef01c86cf67ae5c669b,PennController,86,0,frases,NULL,PennController,87,_Trial_,End,1737551408484,NULL
1737552114,c2a6e53f5f6a5ef01c86cf67ae5c669b,PennController,87,0,frases,NULL,PennController,88,_Trial_,Start,1737551408485,NULL
1737552114,c2a6e53f5f6a5ef01c86cf67ae5c669b,PennController,87,0,frases,NULL,Selector,classificacao,Selection,neutra,1737551411612,negativa;neutra;positiva
1737552114,c2a6e53f5f6a5ef01c86cf67ae5c669b,PennController,87,0,frases,NULL,PennController,88,_Trial_,End,1737551411613,NULL
1737552114,c2a6e53f5f6a5ef01c86cf67ae5c669b,PennController,88,0,frases,NULL,PennController,89,_Trial_,Start,1737551411614,NULL
1737552114,c2a6e53f5f6a5ef01c86cf67ae5c669b,PennController,88,0,frases,NULL,Selector,classificacao,Selection,neutra,1737551413909,negativa;neutra;positiva
1737552114,c2a6e53f5f6a5ef01c86cf67ae5c669b,PennController,88,0,frases,NULL,PennController,89,_Trial_,End,1737551413910,NULL
1737552114,c2a6e53f5f6a5ef01c86cf67ae5c669b,PennController,89,0,frases,NULL,PennController,90,_Trial_,Start,1737551413911,NULL
1737552114,c2a6e53f5f6a5ef01c86cf67ae5c669b,PennController,89,0,frases,NULL,Selector,classificacao,Selection,neutra,1737551421184,negativa;neutra;positiva
1737552114,c2a6e53f5f6a5ef01c86cf67ae5c669b,PennController,89,0,frases,NULL,PennController,90,_Trial_,End,1737551421185,NULL
1737552114,c2a6e53f5f6a5ef01c86cf67ae5c669b,PennController,90,0,frases,NULL,PennController,91,_Trial_,Start,1737551421186,NULL
1737552114,c2a6e53f5f6a5ef01c86cf67ae5c669b,PennController,90,0,frases,NULL,Selector,classificacao,Selection,negativa,1737551425649,negativa;neutra;positiva
1737552114,c2a6e53f5f6a5ef01c86cf67ae5c669b,PennController,90,0,frases,NULL,PennController,91,_Trial_,End,1737551425650,NULL
1737552114,c2a6e53f5f6a5ef01c86cf67ae5c669b,PennController,91,0,frases,NULL,PennController,92,_Trial_,Start,1737551425652,NULL
1737552114,c2a6e53f5f6a5ef01c86cf67ae5c669b,PennController,91,0,frases,NULL,Selector,classificacao,Selection,neutra,1737551457349,negativa;neutra;positiva
1737552114,c2a6e53f5f6a5ef01c86cf67ae5c669b,PennController,91,0,frases,NULL,PennController,92,_Trial_,End,1737551457350,NULL
1737552114,c2a6e53f5f6a5ef01c86cf67ae5c669b,PennController,92,0,frases,NULL,PennController,93,_Trial_,Start,1737551457352,NULL
1737552114,c2a6e53f5f6a5ef01c86cf67ae5c669b,PennController,92,0,frases,NULL,Selector,classificacao,Selection,negativa,1737551462653,negativa;neutra;positiva
1737552114,c2a6e53f5f6a5ef01c86cf67ae5c669b,PennController,92,0,frases,NULL,PennController,93,_Trial_,End,1737551462654,NULL
1737552114,c2a6e53f5f6a5ef01c86cf67ae5c669b,PennController,93,0,frases,NULL,PennController,94,_Trial_,Start,1737551462654,NULL
1737552114,c2a6e53f5f6a5ef01c86cf67ae5c669b,PennController,93,0,frases,NULL,Selector,classificacao,Selection,negativa,1737551465821,negativa;neutra;positiva
1737552114,c2a6e53f5f6a5ef01c86cf67ae5c669b,PennController,93,0,frases,NULL,PennController,94,_Trial_,End,1737551465822,NULL
1737552114,c2a6e53f5f6a5ef01c86cf67ae5c669b,PennController,94,0,frases,NULL,PennController,95,_Trial_,Start,1737551465823,NULL
1737552114,c2a6e53f5f6a5ef01c86cf67ae5c669b,PennController,94,0,frases,NULL,Selector,classificacao,Selection,neutra,1737551471194,negativa;neutra;positiva
1737552114,c2a6e53f5f6a5ef01c86cf67ae5c669b,PennController,94,0,frases,NULL,PennController,95,_Trial_,End,1737551471195,NULL
1737552114,c2a6e53f5f6a5ef01c86cf67ae5c669b,PennController,95,0,frases,NULL,PennController,96,_Trial_,Start,1737551471196,NULL
1737552114,c2a6e53f5f6a5ef01c86cf67ae5c669b,PennController,95,0,frases,NULL,Selector,classificacao,Selection,neutra,1737551477267,negativa;neutra;positiva
1737552114,c2a6e53f5f6a5ef01c86cf67ae5c669b,PennController,95,0,frases,NULL,PennController,96,_Trial_,End,1737551477267,NULL
1737552114,c2a6e53f5f6a5ef01c86cf67ae5c669b,PennController,96,0,frases,NULL,PennController,97,_Trial_,Start,1737551477268,NULL
1737552114,c2a6e53f5f6a5ef01c86cf67ae5c669b,PennController,96,0,frases,NULL,Selector,classificacao,Selection,neutra,1737551482666,negativa;neutra;positiva
1737552114,c2a6e53f5f6a5ef01c86cf67ae5c669b,PennController,96,0,frases,NULL,PennController,97,_Trial_,End,1737551482667,NULL
1737552114,c2a6e53f5f6a5ef01c86cf67ae5c669b,PennController,97,0,frases,NULL,PennController,98,_Trial_,Start,1737551482667,NULL
1737552114,c2a6e53f5f6a5ef01c86cf67ae5c669b,PennController,97,0,frases,NULL,Selector,classificacao,Selection,positiva,1737551496810,negativa;neutra;positiva
1737552114,c2a6e53f5f6a5ef01c86cf67ae5c669b,PennController,97,0,frases,NULL,PennController,98,_Trial_,End,1737551496811,NULL
1737552114,c2a6e53f5f6a5ef01c86cf67ae5c669b,PennController,98,0,frases,NULL,PennController,99,_Trial_,Start,1737551496812,NULL
1737552114,c2a6e53f5f6a5ef01c86cf67ae5c669b,PennController,98,0,frases,NULL,Selector,classificacao,Selection,neutra,1737551537222,negativa;neutra;positiva
1737552114,c2a6e53f5f6a5ef01c86cf67ae5c669b,PennController,98,0,frases,NULL,PennController,99,_Trial_,End,1737551537223,NULL
1737552114,c2a6e53f5f6a5ef01c86cf67ae5c669b,PennController,99,0,frases,NULL,PennController,100,_Trial_,Start,1737551537224,NULL
1737552114,c2a6e53f5f6a5ef01c86cf67ae5c669b,PennController,99,0,frases,NULL,Selector,classificacao,Selection,neutra,1737551571012,negativa;neutra;positiva
1737552114,c2a6e53f5f6a5ef01c86cf67ae5c669b,PennController,99,0,frases,NULL,PennController,100,_Trial_,End,1737551571013,NULL
1737552114,c2a6e53f5f6a5ef01c86cf67ae5c669b,PennController,100,0,frases,NULL,PennController,101,_Trial_,Start,1737551571015,NULL
1737552114,c2a6e53f5f6a5ef01c86cf67ae5c669b,PennController,100,0,frases,NULL,Selector,classificacao,Selection,negativa,1737551582101,negativa;neutra;positiva
1737552114,c2a6e53f5f6a5ef01c86cf67ae5c669b,PennController,100,0,frases,NULL,PennController,101,_Trial_,End,1737551582102,NULL
1737552114,c2a6e53f5f6a5ef01c86cf67ae5c669b,PennController,101,0,frases,NULL,PennController,102,_Trial_,Start,1737551582103,NULL
1737552114,c2a6e53f5f6a5ef01c86cf67ae5c669b,PennController,101,0,frases,NULL,Selector,classificacao,Selection,positiva,1737551585279,negativa;neutra;positiva
1737552114,c2a6e53f5f6a5ef01c86cf67ae5c669b,PennController,101,0,frases,NULL,PennController,102,_Trial_,End,1737551585280,NULL
1737552114,c2a6e53f5f6a5ef01c86cf67ae5c669b,PennController,102,0,frases,NULL,PennController,103,_Trial_,Start,1737551585281,NULL
1737552114,c2a6e53f5f6a5ef01c86cf67ae5c669b,PennController,102,0,frases,NULL,Selector,classificacao,Selection,neutra,1737551593510,negativa;neutra;positiva
1737552114,c2a6e53f5f6a5ef01c86cf67ae5c669b,PennController,102,0,frases,NULL,PennController,103,_Trial_,End,1737551593511,NULL
1737552114,c2a6e53f5f6a5ef01c86cf67ae5c669b,PennController,103,0,frases,NULL,PennController,104,_Trial_,Start,1737551593512,NULL
1737552114,c2a6e53f5f6a5ef01c86cf67ae5c669b,PennController,103,0,frases,NULL,Selector,classificacao,Selection,neutra,1737551606116,negativa;neutra;positiva
1737552114,c2a6e53f5f6a5ef01c86cf67ae5c669b,PennController,103,0,frases,NULL,PennController,104,_Trial_,End,1737551606117,NULL
1737552114,c2a6e53f5f6a5ef01c86cf67ae5c669b,PennController,104,0,frases,NULL,PennController,105,_Trial_,Start,1737551606118,NULL
1737552114,c2a6e53f5f6a5ef01c86cf67ae5c669b,PennController,104,0,frases,NULL,Selector,classificacao,Selection,negativa,1737551611318,negativa;neutra;positiva
1737552114,c2a6e53f5f6a5ef01c86cf67ae5c669b,PennController,104,0,frases,NULL,PennController,105,_Trial_,End,1737551611319,NULL
1737552114,c2a6e53f5f6a5ef01c86cf67ae5c669b,PennController,105,0,frases,NULL,PennController,106,_Trial_,Start,1737551611320,NULL
1737552114,c2a6e53f5f6a5ef01c86cf67ae5c669b,PennController,105,0,frases,NULL,Selector,classificacao,Selection,neutra,1737551617260,negativa;neutra;positiva
1737552114,c2a6e53f5f6a5ef01c86cf67ae5c669b,PennController,105,0,frases,NULL,PennController,106,_Trial_,End,1737551617262,NULL
1737552114,c2a6e53f5f6a5ef01c86cf67ae5c669b,PennController,106,0,frases,NULL,PennController,107,_Trial_,Start,1737551617263,NULL
1737552114,c2a6e53f5f6a5ef01c86cf67ae5c669b,PennController,106,0,frases,NULL,Selector,classificacao,Selection,neutra,1737551622288,negativa;neutra;positiva
1737552114,c2a6e53f5f6a5ef01c86cf67ae5c669b,PennController,106,0,frases,NULL,PennController,107,_Trial_,End,1737551622289,NULL
1737552114,c2a6e53f5f6a5ef01c86cf67ae5c669b,PennController,107,0,frases,NULL,PennController,108,_Trial_,Start,1737551622290,NULL
1737552114,c2a6e53f5f6a5ef01c86cf67ae5c669b,PennController,107,0,frases,NULL,Selector,classificacao,Selection,neutra,1737551632930,negativa;neutra;positiva
1737552114,c2a6e53f5f6a5ef01c86cf67ae5c669b,PennController,107,0,frases,NULL,PennController,108,_Trial_,End,1737551632931,NULL
1737552114,c2a6e53f5f6a5ef01c86cf67ae5c669b,PennController,108,0,frases,NULL,PennController,109,_Trial_,Start,1737551632932,NULL
1737552114,c2a6e53f5f6a5ef01c86cf67ae5c669b,PennController,108,0,frases,NULL,Selector,classificacao,Selection,neutra,1737551640630,negativa;neutra;positiva
1737552114,c2a6e53f5f6a5ef01c86cf67ae5c669b,PennController,108,0,frases,NULL,PennController,109,_Trial_,End,1737551640631,NULL
1737552114,c2a6e53f5f6a5ef01c86cf67ae5c669b,PennController,109,0,frases,NULL,PennController,110,_Trial_,Start,1737551640632,NULL
1737552114,c2a6e53f5f6a5ef01c86cf67ae5c669b,PennController,109,0,frases,NULL,Selector,classificacao,Selection,neutra,1737551644506,negativa;neutra;positiva
1737552114,c2a6e53f5f6a5ef01c86cf67ae5c669b,PennController,109,0,frases,NULL,PennController,110,_Trial_,End,1737551644507,NULL
1737552114,c2a6e53f5f6a5ef01c86cf67ae5c669b,PennController,110,0,frases,NULL,PennController,111,_Trial_,Start,1737551644508,NULL
1737552114,c2a6e53f5f6a5ef01c86cf67ae5c669b,PennController,110,0,frases,NULL,Selector,classificacao,Selection,negativa,1737551652840,negativa;neutra;positiva
1737552114,c2a6e53f5f6a5ef01c86cf67ae5c669b,PennController,110,0,frases,NULL,PennController,111,_Trial_,End,1737551652841,NULL
1737552114,c2a6e53f5f6a5ef01c86cf67ae5c669b,PennController,111,0,frases,NULL,PennController,112,_Trial_,Start,1737551652842,NULL
1737552114,c2a6e53f5f6a5ef01c86cf67ae5c669b,PennController,111,0,frases,NULL,Selector,classificacao,Selection,positiva,1737551710856,negativa;neutra;positiva
1737552114,c2a6e53f5f6a5ef01c86cf67ae5c669b,PennController,111,0,frases,NULL,PennController,112,_Trial_,End,1737551710857,NULL
1737552114,c2a6e53f5f6a5ef01c86cf67ae5c669b,PennController,112,0,frases,NULL,PennController,113,_Trial_,Start,1737551710858,NULL
1737552114,c2a6e53f5f6a5ef01c86cf67ae5c669b,PennController,112,0,frases,NULL,Selector,classificacao,Selection,neutra,1737551720738,negativa;neutra;positiva
1737552114,c2a6e53f5f6a5ef01c86cf67ae5c669b,PennController,112,0,frases,NULL,PennController,113,_Trial_,End,1737551720739,NULL
1737552114,c2a6e53f5f6a5ef01c86cf67ae5c669b,PennController,113,0,frases,NULL,PennController,114,_Trial_,Start,1737551720739,NULL
1737552114,c2a6e53f5f6a5ef01c86cf67ae5c669b,PennController,113,0,frases,NULL,Selector,classificacao,Selection,positiva,1737551738664,negativa;neutra;positiva
1737552114,c2a6e53f5f6a5ef01c86cf67ae5c669b,PennController,113,0,frases,NULL,PennController,114,_Trial_,End,1737551738665,NULL
1737552114,c2a6e53f5f6a5ef01c86cf67ae5c669b,PennController,114,0,frases,NULL,PennController,115,_Trial_,Start,1737551738665,NULL
1737552114,c2a6e53f5f6a5ef01c86cf67ae5c669b,PennController,114,0,frases,NULL,Selector,classificacao,Selection,negativa,1737551786947,negativa;neutra;positiva
1737552114,c2a6e53f5f6a5ef01c86cf67ae5c669b,PennController,114,0,frases,NULL,PennController,115,_Trial_,End,1737551786948,NULL
1737552114,c2a6e53f5f6a5ef01c86cf67ae5c669b,PennController,115,0,frases,NULL,PennController,116,_Trial_,Start,1737551786950,NULL
1737552114,c2a6e53f5f6a5ef01c86cf67ae5c669b,PennController,115,0,frases,NULL,Selector,classificacao,Selection,neutra,1737551792307,negativa;neutra;positiva
1737552114,c2a6e53f5f6a5ef01c86cf67ae5c669b,PennController,115,0,frases,NULL,PennController,116,_Trial_,End,1737551792308,NULL
1737552114,c2a6e53f5f6a5ef01c86cf67ae5c669b,PennController,116,0,frases,NULL,PennController,117,_Trial_,Start,1737551792310,NULL
1737552114,c2a6e53f5f6a5ef01c86cf67ae5c669b,PennController,116,0,frases,NULL,Selector,classificacao,Selection,negativa,1737551796522,negativa;neutra;positiva
1737552114,c2a6e53f5f6a5ef01c86cf67ae5c669b,PennController,116,0,frases,NULL,PennController,117,_Trial_,End,1737551796523,NULL
1737552114,c2a6e53f5f6a5ef01c86cf67ae5c669b,PennController,117,0,frases,NULL,PennController,118,_Trial_,Start,1737551796524,NULL
1737552114,c2a6e53f5f6a5ef01c86cf67ae5c669b,PennController,117,0,frases,NULL,Selector,classificacao,Selection,neutra,1737551798896,negativa;neutra;positiva
1737552114,c2a6e53f5f6a5ef01c86cf67ae5c669b,PennController,117,0,frases,NULL,PennController,118,_Trial_,End,1737551798897,NULL
1737552114,c2a6e53f5f6a5ef01c86cf67ae5c669b,PennController,118,0,frases,NULL,PennController,119,_Trial_,Start,1737551798897,NULL
1737552114,c2a6e53f5f6a5ef01c86cf67ae5c669b,PennController,118,0,frases,NULL,Selector,classificacao,Selection,neutra,1737551815803,negativa;neutra;positiva
1737552114,c2a6e53f5f6a5ef01c86cf67ae5c669b,PennController,118,0,frases,NULL,PennController,119,_Trial_,End,1737551815804,NULL
1737552114,c2a6e53f5f6a5ef01c86cf67ae5c669b,PennController,119,0,frases,NULL,PennController,120,_Trial_,Start,1737551815804,NULL
1737552114,c2a6e53f5f6a5ef01c86cf67ae5c669b,PennController,119,0,frases,NULL,Selector,classificacao,Selection,neutra,1737551864409,negativa;neutra;positiva
1737552114,c2a6e53f5f6a5ef01c86cf67ae5c669b,PennController,119,0,frases,NULL,PennController,120,_Trial_,End,1737551864410,NULL
1737552114,c2a6e53f5f6a5ef01c86cf67ae5c669b,PennController,120,0,frases,NULL,PennController,121,_Trial_,Start,1737551864412,NULL
1737552114,c2a6e53f5f6a5ef01c86cf67ae5c669b,PennController,120,0,frases,NULL,Selector,classificacao,Selection,neutra,1737551955760,negativa;neutra;positiva
1737552114,c2a6e53f5f6a5ef01c86cf67ae5c669b,PennController,120,0,frases,NULL,PennController,121,_Trial_,End,1737551955761,NULL
1737552114,c2a6e53f5f6a5ef01c86cf67ae5c669b,PennController,121,0,frases,NULL,PennController,122,_Trial_,Start,1737551955763,NULL
1737552114,c2a6e53f5f6a5ef01c86cf67ae5c669b,PennController,121,0,frases,NULL,Selector,classificacao,Selection,neutra,1737551959075,negativa;neutra;positiva
1737552114,c2a6e53f5f6a5ef01c86cf67ae5c669b,PennController,121,0,frases,NULL,PennController,122,_Trial_,End,1737551959076,NULL
1737552114,c2a6e53f5f6a5ef01c86cf67ae5c669b,PennController,122,0,frases,NULL,PennController,123,_Trial_,Start,1737551959077,NULL
1737552114,c2a6e53f5f6a5ef01c86cf67ae5c669b,PennController,122,0,frases,NULL,Selector,classificacao,Selection,neutra,1737551966107,negativa;neutra;positiva
1737552114,c2a6e53f5f6a5ef01c86cf67ae5c669b,PennController,122,0,frases,NULL,PennController,123,_Trial_,End,1737551966108,NULL
1737552114,c2a6e53f5f6a5ef01c86cf67ae5c669b,PennController,123,0,frases,NULL,PennController,124,_Trial_,Start,1737551966109,NULL
1737552114,c2a6e53f5f6a5ef01c86cf67ae5c669b,PennController,123,0,frases,NULL,Selector,classificacao,Selection,neutra,1737551972243,negativa;neutra;positiva
1737552114,c2a6e53f5f6a5ef01c86cf67ae5c669b,PennController,123,0,frases,NULL,PennController,124,_Trial_,End,1737551972244,NULL
1737552114,c2a6e53f5f6a5ef01c86cf67ae5c669b,PennController,124,0,frases,NULL,PennController,125,_Trial_,Start,1737551972245,NULL
1737552114,c2a6e53f5f6a5ef01c86cf67ae5c669b,PennController,124,0,frases,NULL,Selector,classificacao,Selection,neutra,1737551974485,negativa;neutra;positiva
1737552114,c2a6e53f5f6a5ef01c86cf67ae5c669b,PennController,124,0,frases,NULL,PennController,125,_Trial_,End,1737551974486,NULL
1737552114,c2a6e53f5f6a5ef01c86cf67ae5c669b,PennController,125,0,frases,NULL,PennController,126,_Trial_,Start,1737551974487,NULL
1737552114,c2a6e53f5f6a5ef01c86cf67ae5c669b,PennController,125,0,frases,NULL,Selector,classificacao,Selection,neutra,1737551982023,negativa;neutra;positiva
1737552114,c2a6e53f5f6a5ef01c86cf67ae5c669b,PennController,125,0,frases,NULL,PennController,126,_Trial_,End,1737551982024,NULL
1737552114,c2a6e53f5f6a5ef01c86cf67ae5c669b,PennController,126,0,frases,NULL,PennController,127,_Trial_,Start,1737551982026,NULL
1737552114,c2a6e53f5f6a5ef01c86cf67ae5c669b,PennController,126,0,frases,NULL,Selector,classificacao,Selection,neutra,1737551985115,negativa;neutra;positiva
1737552114,c2a6e53f5f6a5ef01c86cf67ae5c669b,PennController,126,0,frases,NULL,PennController,127,_Trial_,End,1737551985116,NULL
1737552114,c2a6e53f5f6a5ef01c86cf67ae5c669b,PennController,127,0,frases,NULL,PennController,128,_Trial_,Start,1737551985117,NULL
1737552114,c2a6e53f5f6a5ef01c86cf67ae5c669b,PennController,127,0,frases,NULL,Selector,classificacao,Selection,neutra,1737551987007,negativa;neutra;positiva
1737552114,c2a6e53f5f6a5ef01c86cf67ae5c669b,PennController,127,0,frases,NULL,PennController,128,_Trial_,End,1737551987008,NULL
1737552114,c2a6e53f5f6a5ef01c86cf67ae5c669b,PennController,128,0,frases,NULL,PennController,129,_Trial_,Start,1737551987009,NULL
1737552114,c2a6e53f5f6a5ef01c86cf67ae5c669b,PennController,128,0,frases,NULL,Selector,classificacao,Selection,negativa,1737551992624,negativa;neutra;positiva
1737552114,c2a6e53f5f6a5ef01c86cf67ae5c669b,PennController,128,0,frases,NULL,PennController,129,_Trial_,End,1737551992625,NULL
1737552114,c2a6e53f5f6a5ef01c86cf67ae5c669b,PennController,129,0,frases,NULL,PennController,130,_Trial_,Start,1737551992626,NULL
1737552114,c2a6e53f5f6a5ef01c86cf67ae5c669b,PennController,129,0,frases,NULL,Selector,classificacao,Selection,neutra,1737551996659,negativa;neutra;positiva
1737552114,c2a6e53f5f6a5ef01c86cf67ae5c669b,PennController,129,0,frases,NULL,PennController,130,_Trial_,End,1737551996660,NULL
1737552114,c2a6e53f5f6a5ef01c86cf67ae5c669b,PennController,130,0,frases,NULL,PennController,131,_Trial_,Start,1737551996661,NULL
1737552114,c2a6e53f5f6a5ef01c86cf67ae5c669b,PennController,130,0,frases,NULL,Selector,classificacao,Selection,neutra,1737551998899,negativa;neutra;positiva
1737552114,c2a6e53f5f6a5ef01c86cf67ae5c669b,PennController,130,0,frases,NULL,PennController,131,_Trial_,End,1737551998899,NULL
1737552114,c2a6e53f5f6a5ef01c86cf67ae5c669b,PennController,131,0,frases,NULL,PennController,132,_Trial_,Start,1737551998900,NULL
1737552114,c2a6e53f5f6a5ef01c86cf67ae5c669b,PennController,131,0,frases,NULL,Selector,classificacao,Selection,neutra,1737552000301,negativa;neutra;positiva
1737552114,c2a6e53f5f6a5ef01c86cf67ae5c669b,PennController,131,0,frases,NULL,PennController,132,_Trial_,End,1737552000302,NULL
1737552114,c2a6e53f5f6a5ef01c86cf67ae5c669b,PennController,132,0,frases,NULL,PennController,133,_Trial_,Start,1737552000303,NULL
1737552114,c2a6e53f5f6a5ef01c86cf67ae5c669b,PennController,132,0,frases,NULL,Selector,classificacao,Selection,neutra,1737552001953,negativa;neutra;positiva
1737552114,c2a6e53f5f6a5ef01c86cf67ae5c669b,PennController,132,0,frases,NULL,PennController,133,_Trial_,End,1737552001954,NULL
1737552114,c2a6e53f5f6a5ef01c86cf67ae5c669b,PennController,133,0,frases,NULL,PennController,134,_Trial_,Start,1737552001954,NULL
1737552114,c2a6e53f5f6a5ef01c86cf67ae5c669b,PennController,133,0,frases,NULL,Selector,classificacao,Selection,positiva,1737552006705,negativa;neutra;positiva
1737552114,c2a6e53f5f6a5ef01c86cf67ae5c669b,PennController,133,0,frases,NULL,PennController,134,_Trial_,End,1737552006706,NULL
1737552114,c2a6e53f5f6a5ef01c86cf67ae5c669b,PennController,134,0,frases,NULL,PennController,135,_Trial_,Start,1737552006707,NULL
1737552114,c2a6e53f5f6a5ef01c86cf67ae5c669b,PennController,134,0,frases,NULL,Selector,classificacao,Selection,positiva,1737552010143,negativa;neutra;positiva
1737552114,c2a6e53f5f6a5ef01c86cf67ae5c669b,PennController,134,0,frases,NULL,PennController,135,_Trial_,End,1737552010144,NULL
1737552114,c2a6e53f5f6a5ef01c86cf67ae5c669b,PennController,135,0,frases,NULL,PennController,136,_Trial_,Start,1737552010145,NULL
1737552114,c2a6e53f5f6a5ef01c86cf67ae5c669b,PennController,135,0,frases,NULL,Selector,classificacao,Selection,neutra,1737552020397,negativa;neutra;positiva
1737552114,c2a6e53f5f6a5ef01c86cf67ae5c669b,PennController,135,0,frases,NULL,PennController,136,_Trial_,End,1737552020398,NULL
1737552114,c2a6e53f5f6a5ef01c86cf67ae5c669b,PennController,136,0,frases,NULL,PennController,137,_Trial_,Start,1737552020399,NULL
1737552114,c2a6e53f5f6a5ef01c86cf67ae5c669b,PennController,136,0,frases,NULL,Selector,classificacao,Selection,neutra,1737552022701,negativa;neutra;positiva
1737552114,c2a6e53f5f6a5ef01c86cf67ae5c669b,PennController,136,0,frases,NULL,PennController,137,_Trial_,End,1737552022702,NULL
1737552114,c2a6e53f5f6a5ef01c86cf67ae5c669b,PennController,137,0,frases,NULL,PennController,138,_Trial_,Start,1737552022703,NULL
1737552114,c2a6e53f5f6a5ef01c86cf67ae5c669b,PennController,137,0,frases,NULL,Selector,classificacao,Selection,neutra,1737552029748,negativa;neutra;positiva
1737552114,c2a6e53f5f6a5ef01c86cf67ae5c669b,PennController,137,0,frases,NULL,PennController,138,_Trial_,End,1737552029748,NULL
1737552114,c2a6e53f5f6a5ef01c86cf67ae5c669b,PennController,138,0,frases,NULL,PennController,139,_Trial_,Start,1737552029749,NULL
1737552114,c2a6e53f5f6a5ef01c86cf67ae5c669b,PennController,138,0,frases,NULL,Selector,classificacao,Selection,neutra,1737552039769,negativa;neutra;positiva
1737552114,c2a6e53f5f6a5ef01c86cf67ae5c669b,PennController,138,0,frases,NULL,PennController,139,_Trial_,End,1737552039770,NULL
1737552114,c2a6e53f5f6a5ef01c86cf67ae5c669b,PennController,139,0,frases,NULL,PennController,140,_Trial_,Start,1737552039771,NULL
1737552114,c2a6e53f5f6a5ef01c86cf67ae5c669b,PennController,139,0,frases,NULL,Selector,classificacao,Selection,negativa,1737552046313,negativa;neutra;positiva
1737552114,c2a6e53f5f6a5ef01c86cf67ae5c669b,PennController,139,0,frases,NULL,PennController,140,_Trial_,End,1737552046315,NULL
1737552114,c2a6e53f5f6a5ef01c86cf67ae5c669b,PennController,140,0,frases,NULL,PennController,141,_Trial_,Start,1737552046315,NULL
1737552114,c2a6e53f5f6a5ef01c86cf67ae5c669b,PennController,140,0,frases,NULL,Selector,classificacao,Selection,neutra,1737552048923,negativa;neutra;positiva
1737552114,c2a6e53f5f6a5ef01c86cf67ae5c669b,PennController,140,0,frases,NULL,PennController,141,_Trial_,End,1737552048924,NULL
1737552114,c2a6e53f5f6a5ef01c86cf67ae5c669b,PennController,141,0,frases,NULL,PennController,142,_Trial_,Start,1737552048925,NULL
1737552114,c2a6e53f5f6a5ef01c86cf67ae5c669b,PennController,141,0,frases,NULL,Selector,classificacao,Selection,neutra,1737552055813,negativa;neutra;positiva
1737552114,c2a6e53f5f6a5ef01c86cf67ae5c669b,PennController,141,0,frases,NULL,PennController,142,_Trial_,End,1737552055814,NULL
1737552114,c2a6e53f5f6a5ef01c86cf67ae5c669b,PennController,142,0,frases,NULL,PennController,143,_Trial_,Start,1737552055815,NULL
1737552114,c2a6e53f5f6a5ef01c86cf67ae5c669b,PennController,142,0,frases,NULL,Selector,classificacao,Selection,neutra,1737552062287,negativa;neutra;positiva
1737552114,c2a6e53f5f6a5ef01c86cf67ae5c669b,PennController,142,0,frases,NULL,PennController,143,_Trial_,End,1737552062288,NULL
1737552114,c2a6e53f5f6a5ef01c86cf67ae5c669b,PennController,143,0,frases,NULL,PennController,144,_Trial_,Start,1737552062289,NULL
1737552114,c2a6e53f5f6a5ef01c86cf67ae5c669b,PennController,143,0,frases,NULL,Selector,classificacao,Selection,negativa,1737552068833,negativa;neutra;positiva
1737552114,c2a6e53f5f6a5ef01c86cf67ae5c669b,PennController,143,0,frases,NULL,PennController,144,_Trial_,End,1737552068834,NULL
1737552114,c2a6e53f5f6a5ef01c86cf67ae5c669b,PennController,144,0,frases,NULL,PennController,145,_Trial_,Start,1737552068835,NULL
1737552114,c2a6e53f5f6a5ef01c86cf67ae5c669b,PennController,144,0,frases,NULL,Selector,classificacao,Selection,neutra,1737552075028,negativa;neutra;positiva
1737552114,c2a6e53f5f6a5ef01c86cf67ae5c669b,PennController,144,0,frases,NULL,PennController,145,_Trial_,End,1737552075029,NULL
1737552114,c2a6e53f5f6a5ef01c86cf67ae5c669b,PennController,145,0,frases,NULL,PennController,146,_Trial_,Start,1737552075030,NULL
1737552114,c2a6e53f5f6a5ef01c86cf67ae5c669b,PennController,145,0,frases,NULL,Selector,classificacao,Selection,positiva,1737552083880,negativa;neutra;positiva
1737552114,c2a6e53f5f6a5ef01c86cf67ae5c669b,PennController,145,0,frases,NULL,PennController,146,_Trial_,End,1737552083881,NULL
1737552114,c2a6e53f5f6a5ef01c86cf67ae5c669b,PennController,146,0,frases,NULL,PennController,147,_Trial_,Start,1737552083882,NULL
1737552114,c2a6e53f5f6a5ef01c86cf67ae5c669b,PennController,146,0,frases,NULL,Selector,classificacao,Selection,negativa,1737552087062,negativa;neutra;positiva
1737552114,c2a6e53f5f6a5ef01c86cf67ae5c669b,PennController,146,0,frases,NULL,PennController,147,_Trial_,End,1737552087063,NULL
1737552114,c2a6e53f5f6a5ef01c86cf67ae5c669b,PennController,147,0,frases,NULL,PennController,148,_Trial_,Start,1737552087064,NULL
1737552114,c2a6e53f5f6a5ef01c86cf67ae5c669b,PennController,147,0,frases,NULL,Selector,classificacao,Selection,neutra,1737552090614,negativa;neutra;positiva
1737552114,c2a6e53f5f6a5ef01c86cf67ae5c669b,PennController,147,0,frases,NULL,PennController,148,_Trial_,End,1737552090614,NULL
1737552114,c2a6e53f5f6a5ef01c86cf67ae5c669b,PennController,148,0,frases,NULL,PennController,149,_Trial_,Start,1737552090615,NULL
1737552114,c2a6e53f5f6a5ef01c86cf67ae5c669b,PennController,148,0,frases,NULL,Selector,classificacao,Selection,neutra,1737552092854,negativa;neutra;positiva
1737552114,c2a6e53f5f6a5ef01c86cf67ae5c669b,PennController,148,0,frases,NULL,PennController,149,_Trial_,End,1737552092856,NULL
1737552114,c2a6e53f5f6a5ef01c86cf67ae5c669b,PennController,149,0,frases,NULL,PennController,150,_Trial_,Start,1737552092857,NULL
1737552114,c2a6e53f5f6a5ef01c86cf67ae5c669b,PennController,149,0,frases,NULL,Selector,classificacao,Selection,neutra,1737552095461,negativa;neutra;positiva
1737552114,c2a6e53f5f6a5ef01c86cf67ae5c669b,PennController,149,0,frases,NULL,PennController,150,_Trial_,End,1737552095462,NULL
1737552114,c2a6e53f5f6a5ef01c86cf67ae5c669b,PennController,150,0,frases,NULL,PennController,151,_Trial_,Start,1737552095462,NULL
1737552114,c2a6e53f5f6a5ef01c86cf67ae5c669b,PennController,150,0,frases,NULL,Selector,classificacao,Selection,neutra,1737552099524,negativa;neutra;positiva
1737552114,c2a6e53f5f6a5ef01c86cf67ae5c669b,PennController,150,0,frases,NULL,PennController,151,_Trial_,End,1737552099525,NULL
1737552114,c2a6e53f5f6a5ef01c86cf67ae5c669b,PennController,151,0,frases,NULL,PennController,152,_Trial_,Start,1737552099526,NULL
1737552114,c2a6e53f5f6a5ef01c86cf67ae5c669b,PennController,151,0,frases,NULL,Selector,classificacao,Selection,neutra,1737552101500,negativa;neutra;positiva
1737552114,c2a6e53f5f6a5ef01c86cf67ae5c669b,PennController,151,0,frases,NULL,PennController,152,_Trial_,End,1737552101502,NULL
1737552114,c2a6e53f5f6a5ef01c86cf67ae5c669b,PennController,152,0,frases,NULL,PennController,153,_Trial_,Start,1737552101503,NULL
1737552114,c2a6e53f5f6a5ef01c86cf67ae5c669b,PennController,152,0,frases,NULL,Selector,classificacao,Selection,positiva,1737552104666,negativa;neutra;positiva
1737552114,c2a6e53f5f6a5ef01c86cf67ae5c669b,PennController,152,0,frases,NULL,PennController,153,_Trial_,End,1737552104666,NULL
1737552114,c2a6e53f5f6a5ef01c86cf67ae5c669b,PennController,153,0,frases,NULL,PennController,154,_Trial_,Start,1737552104666,NULL
1737552114,c2a6e53f5f6a5ef01c86cf67ae5c669b,PennController,153,0,frases,NULL,Selector,classificacao,Selection,negativa,1737552112227,negativa;neutra;positiva
1737552114,c2a6e53f5f6a5ef01c86cf67ae5c669b,PennController,153,0,frases,NULL,PennController,154,_Trial_,End,1737552112228,NULL
1737552114,c2a6e53f5f6a5ef01c86cf67ae5c669b,PennController,154,0,agradecimento,NULL,PennController,4,_Trial_,Start,1737552112229,NULL
1737552114,c2a6e53f5f6a5ef01c86cf67ae5c669b,PennController,154,0,agradecimento,NULL,PennController,4,_Trial_,End,1737552113873,NULL
#
# Results on Thu, 23 Jan 2025 13:29:35 GMT
# USER AGENT: Mozilla/5.0 (Windows NT 10.0; Win64; x64; rv:134.0) Gecko/20100101 Firefox/134.0
# Design number was non-random = 1
#
# Columns below this comment are as follows:
# 1. Results reception time.
# 2. MD5 hash of participant's IP address.
# 3. Controller name.
# 4. Order number of item.
# 5. Inner element number.
# 6. Label.
# 7. Latin Square Group.
# 8. PennElementType.
# 9. PennElementName.
# 10. Parameter.
# 11. Value.
# 12. EventTime.
# 13. Comments.
1737638975,bc2584302fffead698e1809107a60040,PennController,0,0,TCLE,NULL,PennController,0,_Trial_,Start,1737637655595,NULL
1737638975,bc2584302fffead698e1809107a60040,PennController,0,0,TCLE,NULL,PennController,0,_Trial_,End,1737637760574,NULL
1737638975,bc2584302fffead698e1809107a60040,PennController,3,0,instrucoes,NULL,PennController,3,_Trial_,Start,1737637760578,NULL
1737638975,bc2584302fffead698e1809107a60040,PennController,3,0,instrucoes,NULL,PennController,3,_Trial_,End,1737637762102,NULL
1737638975,bc2584302fffead698e1809107a60040,PennController,1,0,genero,NULL,PennController,1,_Trial_,Start,1737637762102,NULL
1737638975,bc2584302fffead698e1809107a60040,PennController,1,0,genero,NULL,DropDown,selecionaGenero,Selected,Masculino,1737637763555,0
1737638975,bc2584302fffead698e1809107a60040,PennController,1,0,genero,NULL,PennController,1,_Trial_,End,1737637764325,NULL
1737638975,bc2584302fffead698e1809107a60040,PennController,4,0,frases,NULL,PennController,5,_Trial_,Start,1737637764327,NULL
1737638975,bc2584302fffead698e1809107a60040,PennController,4,0,frases,NULL,Selector,classificacao,Selection,neutra,1737637767469,negativa;neutra;positiva
1737638975,bc2584302fffead698e1809107a60040,PennController,4,0,frases,NULL,PennController,5,_Trial_,End,1737637767470,NULL
1737638975,bc2584302fffead698e1809107a60040,PennController,5,0,frases,NULL,PennController,6,_Trial_,Start,1737637767470,NULL
1737638975,bc2584302fffead698e1809107a60040,PennController,5,0,frases,NULL,Selector,classificacao,Selection,negativa,1737637769756,negativa;neutra;positiva
1737638975,bc2584302fffead698e1809107a60040,PennController,5,0,frases,NULL,PennController,6,_Trial_,End,1737637769757,NULL
1737638975,bc2584302fffead698e1809107a60040,PennController,6,0,frases,NULL,PennController,7,_Trial_,Start,1737637769758,NULL
1737638975,bc2584302fffead698e1809107a60040,PennController,6,0,frases,NULL,Selector,classificacao,Selection,neutra,1737637781861,negativa;neutra;positiva
1737638975,bc2584302fffead698e1809107a60040,PennController,6,0,frases,NULL,PennController,7,_Trial_,End,1737637781862,NULL
1737638975,bc2584302fffead698e1809107a60040,PennController,7,0,frases,NULL,PennController,8,_Trial_,Start,1737637781863,NULL
1737638975,bc2584302fffead698e1809107a60040,PennController,7,0,frases,NULL,Selector,classificacao,Selection,negativa,1737637784212,negativa;neutra;positiva
1737638975,bc2584302fffead698e1809107a60040,PennController,7,0,frases,NULL,PennController,8,_Trial_,End,1737637784213,NULL
1737638975,bc2584302fffead698e1809107a60040,PennController,8,0,frases,NULL,PennController,9,_Trial_,Start,1737637784214,NULL
1737638975,bc2584302fffead698e1809107a60040,PennController,8,0,frases,NULL,Selector,classificacao,Selection,positiva,1737637786301,negativa;neutra;positiva
1737638975,bc2584302fffead698e1809107a60040,PennController,8,0,frases,NULL,PennController,9,_Trial_,End,1737637786301,NULL
1737638975,bc2584302fffead698e1809107a60040,PennController,9,0,frases,NULL,PennController,10,_Trial_,Start,1737637786303,NULL
1737638975,bc2584302fffead698e1809107a60040,PennController,9,0,frases,NULL,Selector,classificacao,Selection,negativa,1737637789356,negativa;neutra;positiva
1737638975,bc2584302fffead698e1809107a60040,PennController,9,0,frases,NULL,PennController,10,_Trial_,End,1737637789357,NULL
1737638975,bc2584302fffead698e1809107a60040,PennController,10,0,frases,NULL,PennController,11,_Trial_,Start,1737637789358,NULL
1737638975,bc2584302fffead698e1809107a60040,PennController,10,0,frases,NULL,Selector,classificacao,Selection,positiva,1737637790901,negativa;neutra;positiva
1737638975,bc2584302fffead698e1809107a60040,PennController,10,0,frases,NULL,PennController,11,_Trial_,End,1737637790901,NULL
1737638975,bc2584302fffead698e1809107a60040,PennController,11,0,frases,NULL,PennController,12,_Trial_,Start,1737637790902,NULL
1737638975,bc2584302fffead698e1809107a60040,PennController,11,0,frases,NULL,Selector,classificacao,Selection,positiva,1737637792660,negativa;neutra;positiva
1737638975,bc2584302fffead698e1809107a60040,PennController,11,0,frases,NULL,PennController,12,_Trial_,End,1737637792661,NULL
1737638975,bc2584302fffead698e1809107a60040,PennController,12,0,frases,NULL,PennController,13,_Trial_,Start,1737637792662,NULL
1737638975,bc2584302fffead698e1809107a60040,PennController,12,0,frases,NULL,Selector,classificacao,Selection,positiva,1737637797580,negativa;neutra;positiva
1737638975,bc2584302fffead698e1809107a60040,PennController,12,0,frases,NULL,PennController,13,_Trial_,End,1737637797581,NULL
1737638975,bc2584302fffead698e1809107a60040,PennController,13,0,frases,NULL,PennController,14,_Trial_,Start,1737637797582,NULL
1737638975,bc2584302fffead698e1809107a60040,PennController,13,0,frases,NULL,Selector,classificacao,Selection,negativa,1737637800044,negativa;neutra;positiva
1737638975,bc2584302fffead698e1809107a60040,PennController,13,0,frases,NULL,PennController,14,_Trial_,End,1737637800044,NULL
1737638975,bc2584302fffead698e1809107a60040,PennController,14,0,frases,NULL,PennController,15,_Trial_,Start,1737637800045,NULL
1737638975,bc2584302fffead698e1809107a60040,PennController,14,0,frases,NULL,Selector,classificacao,Selection,negativa,1737637802101,negativa;neutra;positiva
1737638975,bc2584302fffead698e1809107a60040,PennController,14,0,frases,NULL,PennController,15,_Trial_,End,1737637802102,NULL
1737638975,bc2584302fffead698e1809107a60040,PennController,15,0,frases,NULL,PennController,16,_Trial_,Start,1737637802102,NULL
1737638975,bc2584302fffead698e1809107a60040,PennController,15,0,frases,NULL,Selector,classificacao,Selection,positiva,1737637805597,negativa;neutra;positiva
1737638975,bc2584302fffead698e1809107a60040,PennController,15,0,frases,NULL,PennController,16,_Trial_,End,1737637805597,NULL
1737638975,bc2584302fffead698e1809107a60040,PennController,16,0,frases,NULL,PennController,17,_Trial_,Start,1737637805598,NULL
1737638975,bc2584302fffead698e1809107a60040,PennController,16,0,frases,NULL,Selector,classificacao,Selection,positiva,1737637816355,negativa;neutra;positiva
1737638975,bc2584302fffead698e1809107a60040,PennController,16,0,frases,NULL,PennController,17,_Trial_,End,1737637816356,NULL
1737638975,bc2584302fffead698e1809107a60040,PennController,17,0,frases,NULL,PennController,18,_Trial_,Start,1737637816357,NULL
1737638975,bc2584302fffead698e1809107a60040,PennController,17,0,frases,NULL,Selector,classificacao,Selection,negativa,1737637819749,negativa;neutra;positiva
1737638975,bc2584302fffead698e1809107a60040,PennController,17,0,frases,NULL,PennController,18,_Trial_,End,1737637819750,NULL
1737638975,bc2584302fffead698e1809107a60040,PennController,18,0,frases,NULL,PennController,19,_Trial_,Start,1737637819750,NULL
1737638975,bc2584302fffead698e1809107a60040,PennController,18,0,frases,NULL,Selector,classificacao,Selection,positiva,1737637832228,negativa;neutra;positiva
1737638975,bc2584302fffead698e1809107a60040,PennController,18,0,frases,NULL,PennController,19,_Trial_,End,1737637832228,NULL
1737638975,bc2584302fffead698e1809107a60040,PennController,19,0,frases,NULL,PennController,20,_Trial_,Start,1737637832230,NULL
1737638975,bc2584302fffead698e1809107a60040,PennController,19,0,frases,NULL,Selector,classificacao,Selection,positiva,1737637839109,negativa;neutra;positiva
1737638975,bc2584302fffead698e1809107a60040,PennController,19,0,frases,NULL,PennController,20,_Trial_,End,1737637839110,NULL
1737638975,bc2584302fffead698e1809107a60040,PennController,20,0,frases,NULL,PennController,21,_Trial_,Start,1737637839111,NULL
1737638975,bc2584302fffead698e1809107a60040,PennController,20,0,frases,NULL,Selector,classificacao,Selection,neutra,1737637842291,negativa;neutra;positiva
1737638975,bc2584302fffead698e1809107a60040,PennController,20,0,frases,NULL,PennController,21,_Trial_,End,1737637842292,NULL
1737638975,bc2584302fffead698e1809107a60040,PennController,21,0,frases,NULL,PennController,22,_Trial_,Start,1737637842293,NULL
1737638975,bc2584302fffead698e1809107a60040,PennController,21,0,frases,NULL,Selector,classificacao,Selection,positiva,1737637844558,negativa;neutra;positiva
1737638975,bc2584302fffead698e1809107a60040,PennController,21,0,frases,NULL,PennController,22,_Trial_,End,1737637844558,NULL
1737638975,bc2584302fffead698e1809107a60040,PennController,22,0,frases,NULL,PennController,23,_Trial_,Start,1737637844559,NULL
1737638975,bc2584302fffead698e1809107a60040,PennController,22,0,frases,NULL,Selector,classificacao,Selection,negativa,1737637847837,negativa;neutra;positiva
1737638975,bc2584302fffead698e1809107a60040,PennController,22,0,frases,NULL,PennController,23,_Trial_,End,1737637847837,NULL
1737638975,bc2584302fffead698e1809107a60040,PennController,23,0,frases,NULL,PennController,24,_Trial_,Start,1737637847838,NULL
1737638975,bc2584302fffead698e1809107a60040,PennController,23,0,frases,NULL,Selector,classificacao,Selection,positiva,1737637849701,negativa;neutra;positiva
1737638975,bc2584302fffead698e1809107a60040,PennController,23,0,frases,NULL,PennController,24,_Trial_,End,1737637849701,NULL
1737638975,bc2584302fffead698e1809107a60040,PennController,24,0,frases,NULL,PennController,25,_Trial_,Start,1737637849702,NULL
1737638975,bc2584302fffead698e1809107a60040,PennController,24,0,frases,NULL,Selector,classificacao,Selection,positiva,1737637851749,negativa;neutra;positiva
1737638975,bc2584302fffead698e1809107a60040,PennController,24,0,frases,NULL,PennController,25,_Trial_,End,1737637851749,NULL
1737638975,bc2584302fffead698e1809107a60040,PennController,25,0,frases,NULL,PennController,26,_Trial_,Start,1737637851749,NULL
1737638975,bc2584302fffead698e1809107a60040,PennController,25,0,frases,NULL,Selector,classificacao,Selection,neutra,1737637875252,negativa;neutra;positiva
1737638975,bc2584302fffead698e1809107a60040,PennController,25,0,frases,NULL,PennController,26,_Trial_,End,1737637875252,NULL
1737638975,bc2584302fffead698e1809107a60040,PennController,26,0,frases,NULL,PennController,27,_Trial_,Start,1737637875253,NULL
1737638975,bc2584302fffead698e1809107a60040,PennController,26,0,frases,NULL,Selector,classificacao,Selection,negativa,1737637877772,negativa;neutra;positiva
1737638975,bc2584302fffead698e1809107a60040,PennController,26,0,frases,NULL,PennController,27,_Trial_,End,1737637877773,NULL
1737638975,bc2584302fffead698e1809107a60040,PennController,27,0,frases,NULL,PennController,28,_Trial_,Start,1737637877773,NULL
1737638975,bc2584302fffead698e1809107a60040,PennController,27,0,frases,NULL,Selector,classificacao,Selection,negativa,1737637880587,negativa;neutra;positiva
1737638975,bc2584302fffead698e1809107a60040,PennController,27,0,frases,NULL,PennController,28,_Trial_,End,1737637880588,NULL
1737638975,bc2584302fffead698e1809107a60040,PennController,28,0,frases,NULL,PennController,29,_Trial_,Start,1737637880588,NULL
1737638975,bc2584302fffead698e1809107a60040,PennController,28,0,frases,NULL,Selector,classificacao,Selection,positiva,1737637884340,negativa;neutra;positiva
1737638975,bc2584302fffead698e1809107a60040,PennController,28,0,frases,NULL,PennController,29,_Trial_,End,1737637884341,NULL
1737638975,bc2584302fffead698e1809107a60040,PennController,29,0,frases,NULL,PennController,30,_Trial_,Start,1737637884342,NULL
1737638975,bc2584302fffead698e1809107a60040,PennController,29,0,frases,NULL,Selector,classificacao,Selection,neutra,1737637889948,negativa;neutra;positiva
1737638975,bc2584302fffead698e1809107a60040,PennController,29,0,frases,NULL,PennController,30,_Trial_,End,1737637889948,NULL
1737638975,bc2584302fffead698e1809107a60040,PennController,30,0,frases,NULL,PennController,31,_Trial_,Start,1737637889949,NULL
1737638975,bc2584302fffead698e1809107a60040,PennController,30,0,frases,NULL,Selector,classificacao,Selection,negativa,1737637900125,negativa;neutra;positiva
1737638975,bc2584302fffead698e1809107a60040,PennController,30,0,frases,NULL,PennController,31,_Trial_,End,1737637900125,NULL
1737638975,bc2584302fffead698e1809107a60040,PennController,31,0,frases,NULL,PennController,32,_Trial_,Start,1737637900126,NULL
1737638975,bc2584302fffead698e1809107a60040,PennController,31,0,frases,NULL,Selector,classificacao,Selection,positiva,1737637902548,negativa;neutra;positiva
1737638975,bc2584302fffead698e1809107a60040,PennController,31,0,frases,NULL,PennController,32,_Trial_,End,1737637902550,NULL
1737638975,bc2584302fffead698e1809107a60040,PennController,32,0,frases,NULL,PennController,33,_Trial_,Start,1737637902550,NULL
1737638975,bc2584302fffead698e1809107a60040,PennController,32,0,frases,NULL,Selector,classificacao,Selection,positiva,1737637904811,negativa;neutra;positiva
1737638975,bc2584302fffead698e1809107a60040,PennController,32,0,frases,NULL,PennController,33,_Trial_,End,1737637904812,NULL
1737638975,bc2584302fffead698e1809107a60040,PennController,33,0,frases,NULL,PennController,34,_Trial_,Start,1737637904813,NULL
1737638975,bc2584302fffead698e1809107a60040,PennController,33,0,frases,NULL,Selector,classificacao,Selection,positiva,1737637926804,negativa;neutra;positiva
1737638975,bc2584302fffead698e1809107a60040,PennController,33,0,frases,NULL,PennController,34,_Trial_,End,1737637926805,NULL
1737638975,bc2584302fffead698e1809107a60040,PennController,34,0,frases,NULL,PennController,35,_Trial_,Start,1737637926806,NULL
1737638975,bc2584302fffead698e1809107a60040,PennController,34,0,frases,NULL,Selector,classificacao,Selection,negativa,1737637929733,negativa;neutra;positiva
1737638975,bc2584302fffead698e1809107a60040,PennController,34,0,frases,NULL,PennController,35,_Trial_,End,1737637929734,NULL
1737638975,bc2584302fffead698e1809107a60040,PennController,35,0,frases,NULL,PennController,36,_Trial_,Start,1737637929734,NULL
1737638975,bc2584302fffead698e1809107a60040,PennController,35,0,frases,NULL,Selector,classificacao,Selection,negativa,1737638011379,negativa;neutra;positiva
1737638975,bc2584302fffead698e1809107a60040,PennController,35,0,frases,NULL,PennController,36,_Trial_,End,1737638011381,NULL
1737638975,bc2584302fffead698e1809107a60040,PennController,36,0,frases,NULL,PennController,37,_Trial_,Start,1737638011381,NULL
1737638975,bc2584302fffead698e1809107a60040,PennController,36,0,frases,NULL,Selector,classificacao,Selection,positiva,1737638015604,negativa;neutra;positiva
1737638975,bc2584302fffead698e1809107a60040,PennController,36,0,frases,NULL,PennController,37,_Trial_,End,1737638015605,NULL
1737638975,bc2584302fffead698e1809107a60040,PennController,37,0,frases,NULL,PennController,38,_Trial_,Start,1737638015606,NULL
1737638975,bc2584302fffead698e1809107a60040,PennController,37,0,frases,NULL,Selector,classificacao,Selection,positiva,1737638020484,negativa;neutra;positiva
1737638975,bc2584302fffead698e1809107a60040,PennController,37,0,frases,NULL,PennController,38,_Trial_,End,1737638020485,NULL
1737638975,bc2584302fffead698e1809107a60040,PennController,38,0,frases,NULL,PennController,39,_Trial_,Start,1737638020485,NULL
1737638975,bc2584302fffead698e1809107a60040,PennController,38,0,frases,NULL,Selector,classificacao,Selection,positiva,1737638024083,negativa;neutra;positiva
1737638975,bc2584302fffead698e1809107a60040,PennController,38,0,frases,NULL,PennController,39,_Trial_,End,1737638024084,NULL
1737638975,bc2584302fffead698e1809107a60040,PennController,39,0,frases,NULL,PennController,40,_Trial_,Start,1737638024085,NULL
1737638975,bc2584302fffead698e1809107a60040,PennController,39,0,frases,NULL,Selector,classificacao,Selection,negativa,1737638027388,negativa;neutra;positiva
1737638975,bc2584302fffead698e1809107a60040,PennController,39,0,frases,NULL,PennController,40,_Trial_,End,1737638027389,NULL
1737638975,bc2584302fffead698e1809107a60040,PennController,40,0,frases,NULL,PennController,41,_Trial_,Start,1737638027389,NULL
1737638975,bc2584302fffead698e1809107a60040,PennController,40,0,frases,NULL,Selector,classificacao,Selection,negativa,1737638028541,negativa;neutra;positiva
1737638975,bc2584302fffead698e1809107a60040,PennController,40,0,frases,NULL,PennController,41,_Trial_,End,1737638028542,NULL
1737638975,bc2584302fffead698e1809107a60040,PennController,41,0,frases,NULL,PennController,42,_Trial_,Start,1737638028542,NULL
1737638975,bc2584302fffead698e1809107a60040,PennController,41,0,frases,NULL,Selector,classificacao,Selection,positiva,1737638030604,negativa;neutra;positiva
1737638975,bc2584302fffead698e1809107a60040,PennController,41,0,frases,NULL,PennController,42,_Trial_,End,1737638030605,NULL
1737638975,bc2584302fffead698e1809107a60040,PennController,42,0,frases,NULL,PennController,43,_Trial_,Start,1737638030606,NULL
1737638975,bc2584302fffead698e1809107a60040,PennController,42,0,frases,NULL,Selector,classificacao,Selection,negativa,1737638037851,negativa;neutra;positiva
1737638975,bc2584302fffead698e1809107a60040,PennController,42,0,frases,NULL,PennController,43,_Trial_,End,1737638037852,NULL
1737638975,bc2584302fffead698e1809107a60040,PennController,43,0,frases,NULL,PennController,44,_Trial_,Start,1737638037853,NULL
1737638975,bc2584302fffead698e1809107a60040,PennController,43,0,frases,NULL,Selector,classificacao,Selection,positiva,1737638039204,negativa;neutra;positiva
1737638975,bc2584302fffead698e1809107a60040,PennController,43,0,frases,NULL,PennController,44,_Trial_,End,1737638039205,NULL
1737638975,bc2584302fffead698e1809107a60040,PennController,44,0,frases,NULL,PennController,45,_Trial_,Start,1737638039206,NULL
1737638975,bc2584302fffead698e1809107a60040,PennController,44,0,frases,NULL,Selector,classificacao,Selection,neutra,1737638040699,negativa;neutra;positiva
1737638975,bc2584302fffead698e1809107a60040,PennController,44,0,frases,NULL,PennController,45,_Trial_,End,1737638040700,NULL
1737638975,bc2584302fffead698e1809107a60040,PennController,45,0,frases,NULL,PennController,46,_Trial_,Start,1737638040701,NULL
1737638975,bc2584302fffead698e1809107a60040,PennController,45,0,frases,NULL,Selector,classificacao,Selection,negativa,1737638048323,negativa;neutra;positiva
1737638975,bc2584302fffead698e1809107a60040,PennController,45,0,frases,NULL,PennController,46,_Trial_,End,1737638048323,NULL
1737638975,bc2584302fffead698e1809107a60040,PennController,46,0,frases,NULL,PennController,47,_Trial_,Start,1737638048324,NULL
1737638975,bc2584302fffead698e1809107a60040,PennController,46,0,frases,NULL,Selector,classificacao,Selection,positiva,1737638054636,negativa;neutra;positiva
1737638975,bc2584302fffead698e1809107a60040,PennController,46,0,frases,NULL,PennController,47,_Trial_,End,1737638054637,NULL
1737638975,bc2584302fffead698e1809107a60040,PennController,47,0,frases,NULL,PennController,48,_Trial_,Start,1737638054637,NULL
1737638975,bc2584302fffead698e1809107a60040,PennController,47,0,frases,NULL,Selector,classificacao,Selection,neutra,1737638062258,negativa;neutra;positiva
1737638975,bc2584302fffead698e1809107a60040,PennController,47,0,frases,NULL,PennController,48,_Trial_,End,1737638062259,NULL
1737638975,bc2584302fffead698e1809107a60040,PennController,48,0,frases,NULL,PennController,49,_Trial_,Start,1737638062260,NULL
1737638975,bc2584302fffead698e1809107a60040,PennController,48,0,frases,NULL,Selector,classificacao,Selection,positiva,1737638068172,negativa;neutra;positiva
1737638975,bc2584302fffead698e1809107a60040,PennController,48,0,frases,NULL,PennController,49,_Trial_,End,1737638068172,NULL
1737638975,bc2584302fffead698e1809107a60040,PennController,49,0,frases,NULL,PennController,50,_Trial_,Start,1737638068173,NULL
1737638975,bc2584302fffead698e1809107a60040,PennController,49,0,frases,NULL,Selector,classificacao,Selection,neutra,1737638087770,negativa;neutra;positiva
1737638975,bc2584302fffead698e1809107a60040,PennController,49,0,frases,NULL,PennController,50,_Trial_,End,1737638087770,NULL
1737638975,bc2584302fffead698e1809107a60040,PennController,50,0,frases,NULL,PennController,51,_Trial_,Start,1737638087771,NULL
1737638975,bc2584302fffead698e1809107a60040,PennController,50,0,frases,NULL,Selector,classificacao,Selection,positiva,1737638094540,negativa;neutra;positiva
1737638975,bc2584302fffead698e1809107a60040,PennController,50,0,frases,NULL,PennController,51,_Trial_,End,1737638094541,NULL
1737638975,bc2584302fffead698e1809107a60040,PennController,51,0,frases,NULL,PennController,52,_Trial_,Start,1737638094541,NULL
1737638975,bc2584302fffead698e1809107a60040,PennController,51,0,frases,NULL,Selector,classificacao,Selection,negativa,1737638096988,negativa;neutra;positiva
1737638975,bc2584302fffead698e1809107a60040,PennController,51,0,frases,NULL,PennController,52,_Trial_,End,1737638096989,NULL
1737638975,bc2584302fffead698e1809107a60040,PennController,52,0,frases,NULL,PennController,53,_Trial_,Start,1737638096990,NULL
1737638975,bc2584302fffead698e1809107a60040,PennController,52,0,frases,NULL,Selector,classificacao,Selection,positiva,1737638099332,negativa;neutra;positiva
1737638975,bc2584302fffead698e1809107a60040,PennController,52,0,frases,NULL,PennController,53,_Trial_,End,1737638099332,NULL
1737638975,bc2584302fffead698e1809107a60040,PennController,53,0,frases,NULL,PennController,54,_Trial_,Start,1737638099333,NULL
1737638975,bc2584302fffead698e1809107a60040,PennController,53,0,frases,NULL,Selector,classificacao,Selection,positiva,1737638102643,negativa;neutra;positiva
1737638975,bc2584302fffead698e1809107a60040,PennController,53,0,frases,NULL,PennController,54,_Trial_,End,1737638102644,NULL
1737638975,bc2584302fffead698e1809107a60040,PennController,54,0,frases,NULL,PennController,55,_Trial_,Start,1737638102645,NULL
1737638975,bc2584302fffead698e1809107a60040,PennController,54,0,frases,NULL,Selector,classificacao,Selection,negativa,1737638105548,negativa;neutra;positiva
1737638975,bc2584302fffead698e1809107a60040,PennController,54,0,frases,NULL,PennController,55,_Trial_,End,1737638105548,NULL
1737638975,bc2584302fffead698e1809107a60040,PennController,55,0,frases,NULL,PennController,56,_Trial_,Start,1737638105549,NULL
1737638975,bc2584302fffead698e1809107a60040,PennController,55,0,frases,NULL,Selector,classificacao,Selection,neutra,1737638108828,negativa;neutra;positiva
1737638975,bc2584302fffead698e1809107a60040,PennController,55,0,frases,NULL,PennController,56,_Trial_,End,1737638108828,NULL
1737638975,bc2584302fffead698e1809107a60040,PennController,56,0,frases,NULL,PennController,57,_Trial_,Start,1737638108829,NULL
1737638975,bc2584302fffead698e1809107a60040,PennController,56,0,frases,NULL,Selector,classificacao,Selection,neutra,1737638110307,negativa;neutra;positiva
1737638975,bc2584302fffead698e1809107a60040,PennController,56,0,frases,NULL,PennController,57,_Trial_,End,1737638110308,NULL
1737638975,bc2584302fffead698e1809107a60040,PennController,57,0,frases,NULL,PennController,58,_Trial_,Start,1737638110309,NULL
1737638975,bc2584302fffead698e1809107a60040,PennController,57,0,frases,NULL,Selector,classificacao,Selection,neutra,1737638114219,negativa;neutra;positiva
1737638975,bc2584302fffead698e1809107a60040,PennController,57,0,frases,NULL,PennController,58,_Trial_,End,1737638114220,NULL
1737638975,bc2584302fffead698e1809107a60040,PennController,58,0,frases,NULL,PennController,59,_Trial_,Start,1737638114221,NULL
1737638975,bc2584302fffead698e1809107a60040,PennController,58,0,frases,NULL,Selector,classificacao,Selection,negativa,1737638118565,negativa;neutra;positiva
1737638975,bc2584302fffead698e1809107a60040,PennController,58,0,frases,NULL,PennController,59,_Trial_,End,1737638118565,NULL
1737638975,bc2584302fffead698e1809107a60040,PennController,59,0,frases,NULL,PennController,60,_Trial_,Start,1737638118566,NULL
1737638975,bc2584302fffead698e1809107a60040,PennController,59,0,frases,NULL,Selector,classificacao,Selection,neutra,1737638148275,negativa;neutra;positiva
1737638975,bc2584302fffead698e1809107a60040,PennController,59,0,frases,NULL,PennController,60,_Trial_,End,1737638148275,NULL
1737638975,bc2584302fffead698e1809107a60040,PennController,60,0,frases,NULL,PennController,61,_Trial_,Start,1737638148276,NULL
1737638975,bc2584302fffead698e1809107a60040,PennController,60,0,frases,NULL,Selector,classificacao,Selection,neutra,1737638150691,negativa;neutra;positiva
1737638975,bc2584302fffead698e1809107a60040,PennController,60,0,frases,NULL,PennController,61,_Trial_,End,1737638150692,NULL
1737638975,bc2584302fffead698e1809107a60040,PennController,61,0,frases,NULL,PennController,62,_Trial_,Start,1737638150692,NULL
1737638975,bc2584302fffead698e1809107a60040,PennController,61,0,frases,NULL,Selector,classificacao,Selection,negativa,1737638152691,negativa;neutra;positiva
1737638975,bc2584302fffead698e1809107a60040,PennController,61,0,frases,NULL,PennController,62,_Trial_,End,1737638152691,NULL
1737638975,bc2584302fffead698e1809107a60040,PennController,62,0,frases,NULL,PennController,63,_Trial_,Start,1737638152693,NULL
1737638975,bc2584302fffead698e1809107a60040,PennController,62,0,frases,NULL,Selector,classificacao,Selection,neutra,1737638154508,negativa;neutra;positiva
1737638975,bc2584302fffead698e1809107a60040,PennController,62,0,frases,NULL,PennController,63,_Trial_,End,1737638154509,NULL
1737638975,bc2584302fffead698e1809107a60040,PennController,63,0,frases,NULL,PennController,64,_Trial_,Start,1737638154509,NULL
1737638975,bc2584302fffead698e1809107a60040,PennController,63,0,frases,NULL,Selector,classificacao,Selection,negativa,1737638156844,negativa;neutra;positiva
1737638975,bc2584302fffead698e1809107a60040,PennController,63,0,frases,NULL,PennController,64,_Trial_,End,1737638156844,NULL
1737638975,bc2584302fffead698e1809107a60040,PennController,64,0,frases,NULL,PennController,65,_Trial_,Start,1737638156845,NULL
1737638975,bc2584302fffead698e1809107a60040,PennController,64,0,frases,NULL,Selector,classificacao,Selection,positiva,1737638158452,negativa;neutra;positiva
1737638975,bc2584302fffead698e1809107a60040,PennController,64,0,frases,NULL,PennController,65,_Trial_,End,1737638158453,NULL
1737638975,bc2584302fffead698e1809107a60040,PennController,65,0,frases,NULL,PennController,66,_Trial_,Start,1737638158453,NULL
1737638975,bc2584302fffead698e1809107a60040,PennController,65,0,frases,NULL,Selector,classificacao,Selection,neutra,1737638161996,negativa;neutra;positiva
1737638975,bc2584302fffead698e1809107a60040,PennController,65,0,frases,NULL,PennController,66,_Trial_,End,1737638161997,NULL
1737638975,bc2584302fffead698e1809107a60040,PennController,66,0,frases,NULL,PennController,67,_Trial_,Start,1737638161997,NULL
1737638975,bc2584302fffead698e1809107a60040,PennController,66,0,frases,NULL,Selector,classificacao,Selection,negativa,1737638163323,negativa;neutra;positiva
1737638975,bc2584302fffead698e1809107a60040,PennController,66,0,frases,NULL,PennController,67,_Trial_,End,1737638163324,NULL
1737638975,bc2584302fffead698e1809107a60040,PennController,67,0,frases,NULL,PennController,68,_Trial_,Start,1737638163324,NULL
1737638975,bc2584302fffead698e1809107a60040,PennController,67,0,frases,NULL,Selector,classificacao,Selection,negativa,1737638168651,negativa;neutra;positiva
1737638975,bc2584302fffead698e1809107a60040,PennController,67,0,frases,NULL,PennController,68,_Trial_,End,1737638168652,NULL
1737638975,bc2584302fffead698e1809107a60040,PennController,68,0,frases,NULL,PennController,69,_Trial_,Start,1737638168653,NULL
1737638975,bc2584302fffead698e1809107a60040,PennController,68,0,frases,NULL,Selector,classificacao,Selection,neutra,1737638170971,negativa;neutra;positiva
1737638975,bc2584302fffead698e1809107a60040,PennController,68,0,frases,NULL,PennController,69,_Trial_,End,1737638170971,NULL
1737638975,bc2584302fffead698e1809107a60040,PennController,69,0,frases,NULL,PennController,70,_Trial_,Start,1737638170972,NULL
1737638975,bc2584302fffead698e1809107a60040,PennController,69,0,frases,NULL,Selector,classificacao,Selection,positiva,1737638176100,negativa;neutra;positiva
1737638975,bc2584302fffead698e1809107a60040,PennController,69,0,frases,NULL,PennController,70,_Trial_,End,1737638176100,NULL
1737638975,bc2584302fffead698e1809107a60040,PennController,70,0,frases,NULL,PennController,71,_Trial_,Start,1737638176101,NULL
1737638975,bc2584302fffead698e1809107a60040,PennController,70,0,frases,NULL,Selector,classificacao,Selection,neutra,1737638179852,negativa;neutra;positiva
1737638975,bc2584302fffead698e1809107a60040,PennController,70,0,frases,NULL,PennController,71,_Trial_,End,1737638179852,NULL
1737638975,bc2584302fffead698e1809107a60040,PennController,71,0,frases,NULL,PennController,72,_Trial_,Start,1737638179853,NULL
1737638975,bc2584302fffead698e1809107a60040,PennController,71,0,frases,NULL,Selector,classificacao,Selection,neutra,1737638185595,negativa;neutra;positiva
1737638975,bc2584302fffead698e1809107a60040,PennController,71,0,frases,NULL,PennController,72,_Trial_,End,1737638185595,NULL
1737638975,bc2584302fffead698e1809107a60040,PennController,72,0,frases,NULL,PennController,73,_Trial_,Start,1737638185596,NULL
1737638975,bc2584302fffead698e1809107a60040,PennController,72,0,frases,NULL,Selector,classificacao,Selection,negativa,1737638187675,negativa;neutra;positiva
1737638975,bc2584302fffead698e1809107a60040,PennController,72,0,frases,NULL,PennController,73,_Trial_,End,1737638187675,NULL
1737638975,bc2584302fffead698e1809107a60040,PennController,73,0,frases,NULL,PennController,74,_Trial_,Start,1737638187676,NULL
1737638975,bc2584302fffead698e1809107a60040,PennController,73,0,frases,NULL,Selector,classificacao,Selection,neutra,1737638191204,negativa;neutra;positiva
1737638975,bc2584302fffead698e1809107a60040,PennController,73,0,frases,NULL,PennController,74,_Trial_,End,1737638191204,NULL
1737638975,bc2584302fffead698e1809107a60040,PennController,74,0,frases,NULL,PennController,75,_Trial_,Start,1737638191205,NULL
1737638975,bc2584302fffead698e1809107a60040,PennController,74,0,frases,NULL,Selector,classificacao,Selection,positiva,1737638198115,negativa;neutra;positiva
1737638975,bc2584302fffead698e1809107a60040,PennController,74,0,frases,NULL,PennController,75,_Trial_,End,1737638198115,NULL
1737638975,bc2584302fffead698e1809107a60040,PennController,75,0,frases,NULL,PennController,76,_Trial_,Start,1737638198115,NULL
1737638975,bc2584302fffead698e1809107a60040,PennController,75,0,frases,NULL,Selector,classificacao,Selection,negativa,1737638200396,negativa;neutra;positiva
1737638975,bc2584302fffead698e1809107a60040,PennController,75,0,frases,NULL,PennController,76,_Trial_,End,1737638200397,NULL
1737638975,bc2584302fffead698e1809107a60040,PennController,76,0,frases,NULL,PennController,77,_Trial_,Start,1737638200397,NULL
1737638975,bc2584302fffead698e1809107a60040,PennController,76,0,frases,NULL,Selector,classificacao,Selection,negativa,1737638206011,negativa;neutra;positiva
1737638975,bc2584302fffead698e1809107a60040,PennController,76,0,frases,NULL,PennController,77,_Trial_,End,1737638206011,NULL
1737638975,bc2584302fffead698e1809107a60040,PennController,77,0,frases,NULL,PennController,78,_Trial_,Start,1737638206012,NULL
1737638975,bc2584302fffead698e1809107a60040,PennController,77,0,frases,NULL,Selector,classificacao,Selection,negativa,1737638214580,negativa;neutra;positiva
1737638975,bc2584302fffead698e1809107a60040,PennController,77,0,frases,NULL,PennController,78,_Trial_,End,1737638214581,NULL
1737638975,bc2584302fffead698e1809107a60040,PennController,78,0,frases,NULL,PennController,79,_Trial_,Start,1737638214581,NULL
1737638975,bc2584302fffead698e1809107a60040,PennController,78,0,frases,NULL,Selector,classificacao,Selection,neutra,1737638217716,negativa;neutra;positiva
1737638975,bc2584302fffead698e1809107a60040,PennController,78,0,frases,NULL,PennController,79,_Trial_,End,1737638217717,NULL
1737638975,bc2584302fffead698e1809107a60040,PennController,79,0,frases,NULL,PennController,80,_Trial_,Start,1737638217717,NULL
1737638975,bc2584302fffead698e1809107a60040,PennController,79,0,frases,NULL,Selector,classificacao,Selection,positiva,1737638222354,negativa;neutra;positiva
1737638975,bc2584302fffead698e1809107a60040,PennController,79,0,frases,NULL,PennController,80,_Trial_,End,1737638222355,NULL
1737638975,bc2584302fffead698e1809107a60040,PennController,80,0,frases,NULL,PennController,81,_Trial_,Start,1737638222355,NULL
1737638975,bc2584302fffead698e1809107a60040,PennController,80,0,frases,NULL,Selector,classificacao,Selection,negativa,1737638230339,negativa;neutra;positiva
1737638975,bc2584302fffead698e1809107a60040,PennController,80,0,frases,NULL,PennController,81,_Trial_,End,1737638230340,NULL
1737638975,bc2584302fffead698e1809107a60040,PennController,81,0,frases,NULL,PennController,82,_Trial_,Start,1737638230341,NULL
1737638975,bc2584302fffead698e1809107a60040,PennController,81,0,frases,NULL,Selector,classificacao,Selection,negativa,1737638232331,negativa;neutra;positiva
1737638975,bc2584302fffead698e1809107a60040,PennController,81,0,frases,NULL,PennController,82,_Trial_,End,1737638232331,NULL
1737638975,bc2584302fffead698e1809107a60040,PennController,82,0,frases,NULL,PennController,83,_Trial_,Start,1737638232332,NULL
1737638975,bc2584302fffead698e1809107a60040,PennController,82,0,frases,NULL,Selector,classificacao,Selection,neutra,1737638234378,negativa;neutra;positiva
1737638975,bc2584302fffead698e1809107a60040,PennController,82,0,frases,NULL,PennController,83,_Trial_,End,1737638234379,NULL
1737638975,bc2584302fffead698e1809107a60040,PennController,83,0,frases,NULL,PennController,84,_Trial_,Start,1737638234379,NULL
1737638975,bc2584302fffead698e1809107a60040,PennController,83,0,frases,NULL,Selector,classificacao,Selection,neutra,1737638488079,negativa;neutra;positiva
1737638975,bc2584302fffead698e1809107a60040,PennController,83,0,frases,NULL,PennController,84,_Trial_,End,1737638488080,NULL
1737638975,bc2584302fffead698e1809107a60040,PennController,84,0,frases,NULL,PennController,85,_Trial_,Start,1737638488080,NULL
1737638975,bc2584302fffead698e1809107a60040,PennController,84,0,frases,NULL,Selector,classificacao,Selection,neutra,1737638491296,negativa;neutra;positiva
1737638975,bc2584302fffead698e1809107a60040,PennController,84,0,frases,NULL,PennController,85,_Trial_,End,1737638491296,NULL
1737638975,bc2584302fffead698e1809107a60040,PennController,85,0,frases,NULL,PennController,86,_Trial_,Start,1737638491296,NULL
1737638975,bc2584302fffead698e1809107a60040,PennController,85,0,frases,NULL,Selector,classificacao,Selection,neutra,1737638497503,negativa;neutra;positiva
1737638975,bc2584302fffead698e1809107a60040,PennController,85,0,frases,NULL,PennController,86,_Trial_,End,1737638497504,NULL
1737638975,bc2584302fffead698e1809107a60040,PennController,86,0,frases,NULL,PennController,87,_Trial_,Start,1737638497504,NULL
1737638975,bc2584302fffead698e1809107a60040,PennController,86,0,frases,NULL,Selector,classificacao,Selection,positiva,1737638499486,negativa;neutra;positiva
1737638975,bc2584302fffead698e1809107a60040,PennController,86,0,frases,NULL,PennController,87,_Trial_,End,1737638499487,NULL
1737638975,bc2584302fffead698e1809107a60040,PennController,87,0,frases,NULL,PennController,88,_Trial_,Start,1737638499487,NULL
1737638975,bc2584302fffead698e1809107a60040,PennController,87,0,frases,NULL,Selector,classificacao,Selection,positiva,1737638501630,negativa;neutra;positiva
1737638975,bc2584302fffead698e1809107a60040,PennController,87,0,frases,NULL,PennController,88,_Trial_,End,1737638501630,NULL
1737638975,bc2584302fffead698e1809107a60040,PennController,88,0,frases,NULL,PennController,89,_Trial_,Start,1737638501631,NULL
1737638975,bc2584302fffead698e1809107a60040,PennController,88,0,frases,NULL,Selector,classificacao,Selection,neutra,1737638504424,negativa;neutra;positiva
1737638975,bc2584302fffead698e1809107a60040,PennController,88,0,frases,NULL,PennController,89,_Trial_,End,1737638504424,NULL
1737638975,bc2584302fffead698e1809107a60040,PennController,89,0,frases,NULL,PennController,90,_Trial_,Start,1737638504425,NULL
1737638975,bc2584302fffead698e1809107a60040,PennController,89,0,frases,NULL,Selector,classificacao,Selection,neutra,1737638511583,negativa;neutra;positiva
1737638975,bc2584302fffead698e1809107a60040,PennController,89,0,frases,NULL,PennController,90,_Trial_,End,1737638511584,NULL
1737638975,bc2584302fffead698e1809107a60040,PennController,90,0,frases,NULL,PennController,91,_Trial_,Start,1737638511584,NULL
1737638975,bc2584302fffead698e1809107a60040,PennController,90,0,frases,NULL,Selector,classificacao,Selection,positiva,1737638640270,negativa;neutra;positiva
1737638975,bc2584302fffead698e1809107a60040,PennController,90,0,frases,NULL,PennController,91,_Trial_,End,1737638640270,NULL
